time,seconds_elapsed,z,y,x
1660273549376728300,0.045728271484375,0.14424055814743042,0.08605564385652542,1.0563386678695679
1660273549378705400,0.047705322265625,0.14424055814743042,0.08605564385652542,1.0563386678695679
1660273549380702500,0.049702392578125,0.14424055814743042,0.08605564385652542,1.0563386678695679
1660273549382700500,0.051700439453125,0.14424055814743042,0.08605564385652542,1.0563386678695679
1660273549384708000,0.0537080078125,0.14424055814743042,0.08605564385652542,1.0563386678695679
1660273549386713900,0.0557138671875,0.14424055814743042,0.08605564385652542,1.0563386678695679
1660273549388716300,0.05771630859375,0.14424055814743042,0.08605564385652542,1.0563386678695679
1660273549390720300,0.05972021484375,0.0794888436794281,-0.015347989276051521,1.5297592878341675
1660273549392723700,0.0617236328125,0.07826711237430573,-0.02451096847653389,1.53525710105896
1660273549394726700,0.0637265625,0.08681922405958176,-0.040393464267253876,1.5468635559082031
1660273549396729300,0.065729248046875,0.09353873878717422,-0.05138903856277466,1.5499178171157837
1660273549398730800,0.067730712890625,0.09842566400766373,-0.05871942266821861,1.5541938543319702
1660273549400733000,0.06973291015625,0.11125383526086807,-0.06360634416341782,1.5529721975326538
1660273549402735000,0.071735107421875,0.12652546167373657,-0.06360634416341782,1.5486961603164673
1660273549404736800,0.07373681640625,0.1350775808095932,-0.061162881553173065,1.545030951499939
1660273549406738400,0.075738525390625,0.1552361249923706,-0.055054228752851486,1.534035325050354
1660273549408739800,0.07773974609375,0.17905987799167633,-0.043447788804769516,1.5248724222183228
1660273549410741500,0.079741455078125,0.19188804924488068,-0.037339139729738235,1.5163202285766602
1660273549412742700,0.08174267578125,0.2157117873430252,-0.023900102823972702,1.5053247213363647
1660273549414744000,0.083744140625,0.24747678637504578,-0.004352414980530739,1.4931073188781738
1660273549416745200,0.0857451171875,0.2615266740322113,0.0029779679607599974,1.487609624862671
1660273549418745000,0.0877451171875,0.38064539432525635,0.08055785298347473,1.4546228647232056
1660273549420745000,0.089744873046875,0.38064539432525635,0.08055785298347473,1.4546228647232056
1660273549422744800,0.091744873046875,0.3983604907989502,0.0921642929315567,1.449125051498413
1660273549424744700,0.09374462890625,0.3983604907989502,0.0921642929315567,1.449125051498413
1660273549426746000,0.09574609375,0.4136321246623993,0.10621419548988342,1.4479033946990967
1660273549428747500,0.09774755859375,0.4325689375400543,0.11904236674308777,1.4454598426818848
1660273549430748400,0.09974853515625,0.4643339514732361,0.14164437353610992,1.4442381858825684
1660273549432749300,0.101749267578125,0.4979315400123596,0.16424639523029327,1.4466816186904907
1660273549434750200,0.103750244140625,0.5156466364860535,0.17463110387325287,1.447292447090149
1660273549436751000,0.105751220703125,0.5425246953964233,0.18623754382133484,1.4521794319152832
1660273549438751700,0.107751708984375,0.568791925907135,0.19906571507453918,1.4595097303390503
1660273549440752600,0.109752685546875,0.5834526419639587,0.2027309089899063,1.4674509763717651
1660273549442753500,0.11175341796875,0.6078872680664062,0.2027309089899063,1.4790574312210083
1660273549444753700,0.113753662109375,0.6262132525444031,0.20028744637966156,1.4888312816619873
1660273549446753500,0.11575341796875,0.6359871029853821,0.1935679316520691,1.494939923286438
1660273549448754000,0.11775390625,0.6494261026382446,0.17707456648349762,1.5065463781356812
1660273549450753500,0.11975341796875,0.6585890650749207,0.15447254478931427,1.5212072134017944
1660273549452753400,0.12175341796875,0.6634759902954102,0.13859005272388458,1.5260940790176392
1660273549454753500,0.12375341796875,0.6659194827079773,0.1025490015745163,1.5358679294586182
1660273549456753400,0.12575341796875,0.6659194827079773,0.05978843569755554,1.5419765710830688
1660273549458752800,0.127752685546875,0.6231589317321777,-0.1760055422782898,1.5590808391571045
1660273549460752000,0.129751953125,0.6139959096908569,-0.2108248621225357,1.5584700107574463
1660273549462751000,0.1317509765625,0.6036112308502197,-0.24320071935653687,1.5590808391571045
1660273549464750000,0.13375,0.6036112308502197,-0.24320071935653687,1.5590808391571045
1660273549466749200,0.135749267578125,0.6036112308502197,-0.24320071935653687,1.5590808391571045
1660273549468748500,0.13774853515625,0.6036112308502197,-0.24320071935653687,1.5590808391571045
1660273549470748400,0.13974853515625,0.5938373804092407,-0.27374398708343506,1.5554156303405762
1660273549472748500,0.14174853515625,0.5718462467193604,-0.3336087763309479,1.552361249923706
1660273549474748700,0.143748779296875,0.549244225025177,-0.38980838656425476,1.5413657426834106
1660273549476748500,0.14574853515625,0.5382486581802368,-0.4142429828643799,1.5383113622665405
1660273549478748700,0.147748779296875,0.5241987109184265,-0.46555566787719727,1.5248724222183228
1660273549480748500,0.14974853515625,0.5089271068572998,-0.510759711265564,1.5108224153518677
1660273549482728400,0.151728515625,0.5034292936325073,-0.5309182405471802,1.504713773727417
1660273549484728300,0.153728271484375,0.49609893560409546,-0.568791925907135,1.489442229270935
1660273549486728400,0.155728515625,0.4942663311958313,-0.6011677384376526,1.4760031700134277
1660273549488730400,0.15773046875,0.49732068181037903,-0.6115524768829346,1.469894528388977
1660273549490730500,0.15973046875,0.5022075772285461,-0.6292675733566284,1.457066297531128
1660273549492723700,0.1617236328125,0.5083162188529968,-0.6359871029853821,1.4527902603149414
1660273549494723600,0.1637236328125,0.5229769945144653,-0.6457608938217163,1.441794753074646
1660273549496723700,0.1657236328125,0.540081262588501,-0.6488152742385864,1.429577350616455
1660273549498720000,0.167719970703125,0.6378196477890015,-0.6396522521972656,1.362382173538208
1660273549500717000,0.169717041015625,0.6518695950508118,-0.6341544985771179,1.352608323097229
1660273549502714000,0.171714111328125,0.6683629155158997,-0.6274349689483643,1.3410019874572754
1660273549504711700,0.173711669921875,0.6683629155158997,-0.6274349689483643,1.3410019874572754
1660273549506709500,0.17570947265625,0.6683629155158997,-0.6274349689483643,1.3410019874572754
1660273549508707600,0.17770751953125,0.6683629155158997,-0.6274349689483643,1.3410019874572754
1660273549510707700,0.179707763671875,0.6866888999938965,-0.6182720065116882,1.325730323791504
1660273549512707800,0.181707763671875,0.7263951301574707,-0.5987243056297302,1.3031282424926758
1660273549514707700,0.183707763671875,0.7728208899497986,-0.5797874927520752,1.2762502431869507
1660273549516707800,0.185707763671875,0.7972555160522461,-0.5706244707107544,1.2628111839294434
1660273549518707700,0.187707763671875,0.8424595594406128,-0.5516876578330994,1.2341004610061646
1660273549520707800,0.189707763671875,0.8974373936653137,-0.5425246953964233,1.201724648475647
1660273549522707700,0.191707763671875,0.9237046241760254,-0.5419138073921204,1.1876747608184814
1660273549524707800,0.193707763671875,0.9792933464050293,-0.5480225086212158,1.1504119634628296
1660273549526707700,0.195707763671875,1.0336604118347168,-0.55779629945755,1.1174252033233643
1660273549528707800,0.197707763671875,1.089859962463379,-0.5700136423110962,1.0862711668014526
1660273549530707700,0.199707763671875,1.1173489093780518,-0.5761222839355469,1.0709995031356812
1660273549532707800,0.201707763671875,1.1717158555984497,-0.5895613431930542,1.041067123413086
1660273549534707700,0.203707763671875,1.2022591829299927,-0.5938373804092407,1.0288498401641846
1660273549536707800,0.205707763671875,1.2627347707748413,-0.6133850812911987,1.000749945640564
1660273549538705200,0.207705078125,1.3464233875274658,-0.6610325574874878,0.9604328870773315
1660273549540705300,0.209705322265625,1.3464233875274658,-0.6610325574874878,0.9604328870773315
1660273549542705200,0.211705078125,1.404455542564392,-0.7050148248672485,0.9298896193504333
1660273549544705300,0.213705322265625,1.4588226079940796,-0.7648796439170837,0.9017898440361023
1660273549546705400,0.215705322265625,1.4863115549087524,-0.8003098368644714,0.888350784778595
1660273549548705300,0.217705322265625,1.5357916355133057,-0.8791114687919617,0.8657487630844116
1660273549550705400,0.219705322265625,1.5864933729171753,-0.9652434587478638,0.8413141369819641
1660273549552705500,0.22170556640625,1.6097062826156616,-1.0122801065444946,0.8321511745452881
1660273549554705700,0.22370556640625,1.6555211544036865,-1.1106293201446533,0.8126034736633301
1660273549556705500,0.22570556640625,1.698892593383789,-1.2126438617706299,0.8009970784187317
1660273549558705700,0.22770556640625,1.7190511226654053,-1.2682325839996338,0.793666660785675
1660273549560705500,0.22970556640625,1.7532596588134766,-1.3787992000579834,0.7918340563774109
1660273549562705700,0.23170556640625,1.7776942253112793,-1.5009722709655762,0.7961101531982422
1660273549564705500,0.23370556640625,1.7886898517608643,-1.5626696348190308,0.7973318696022034
1660273549566705700,0.23570556640625,1.8015179634094238,-1.6946165561676025,0.8126034736633301
1660273549568705500,0.23770556640625,1.8064048290252686,-1.8332829475402832,0.8352054953575134
1660273549570705700,0.23970556640625,1.8064048290252686,-1.9053651094436646,0.8510879874229431
1660273549572705500,0.24170556640625,1.803350567817688,-2.061135768890381,0.8834638595581055
1660273549574705700,0.24370556640625,1.803350567817688,-2.215684652328491,0.9292787313461304
1660273549576705800,0.245705810546875,1.8015179634094238,-2.2950971126556396,0.9543242454528809
1660273549578705000,0.247704833984375,1.8015179634094238,-2.603584051132202,1.0764973163604736
1660273549580704000,0.2497041015625,1.8015179634094238,-2.603584051132202,1.0764973163604736
1660273549582704000,0.2517041015625,1.802128791809082,-2.683607339859009,1.1131491661071777
1660273549584704300,0.253704345703125,1.8027397394180298,-2.8424322605133057,1.1913399696350098
1660273549586704400,0.255704345703125,1.8057940006256104,-3.002479076385498,1.2725850343704224
1660273549588704300,0.257704345703125,1.8076266050338745,-3.0825023651123047,1.3153456449508667
1660273549590704400,0.259704345703125,1.8039613962173462,-3.2492685317993164,1.4081971645355225
1660273549592704300,0.261704345703125,1.7929658889770508,-3.41542387008667,1.5083789825439453
1660273549594704400,0.263704345703125,1.7856354713439941,-3.499723434448242,1.5566374063491821
1660273549596704300,0.265704345703125,1.7697529792785645,-3.664046049118042,1.6610952615737915
1660273549598705200,0.267705078125,1.7508161067962646,-3.8240928649902344,1.7661641836166382
1660273549600705300,0.269705322265625,1.7440966367721558,-3.9022834300994873,1.821752905845642
1660273549602705200,0.271705078125,1.726381540298462,-4.0586652755737305,1.9298759698867798
1660273549604705300,0.273705322265625,1.718440294265747,-4.2071051597595215,2.037388324737549
1660273549606705200,0.275705078125,1.7178294658660889,-4.281630992889404,2.0893118381500244
1660273549608705000,0.277705078125,1.7233271598815918,-4.421518802642822,2.185828447341919
1660273549610705200,0.279705078125,1.747761845588684,-4.545524597167969,2.272571325302124
1660273549612705000,0.281705078125,1.764255166053772,-4.60477876663208,2.3098342418670654
1660273549614705200,0.283705078125,1.8082374334335327,-4.709847450256348,2.3709206581115723
1660273549616705000,0.285705078125,1.8558850288391113,-4.802088260650635,2.40940523147583
1660273549618704100,0.2877041015625,2.030592441558838,-5.022610187530518,2.3348796367645264
1660273549620703200,0.289703125,2.030592441558838,-5.022610187530518,2.3348796367645264
1660273549622702300,0.291702392578125,2.030592441558838,-5.022610187530518,2.3348796367645264
1660273549624701400,0.293701416015625,2.030592441558838,-5.022610187530518,2.3348796367645264
1660273549626701600,0.29570166015625,2.047085762023926,-5.043379783630371,2.2988386154174805
1660273549628701700,0.29770166015625,2.0855703353881836,-5.0751447677612305,2.2157609462738037
1660273549630701600,0.29970166015625,2.106950521469116,-5.081864356994629,2.174222230911255
1660273549632701700,0.30170166015625,2.1600959300994873,-5.072701454162598,2.0844249725341797
1660273549634701800,0.303701904296875,2.2254583835601807,-5.035438537597656,1.9946277141571045
1660273549636701700,0.30570166015625,2.2639429569244385,-5.006727695465088,1.9500346183776855
1660273549638702300,0.307702392578125,2.3470206260681152,-4.926093578338623,1.8547395467758179
1660273549640703200,0.309703125,2.4429264068603516,-4.82896614074707,1.7582229375839233
1660273549642702800,0.311702880859375,2.494239091873169,-4.773988246917725,1.7075210809707642
1660273549644702700,0.31370263671875,2.6011404991149902,-4.668308734893799,1.5957326889038086
1660273549646702600,0.31570263671875,2.7080419063568115,-4.5754570960998535,1.47844660282135
1660273549648702700,0.31770263671875,2.7587437629699707,-4.5394158363342285,1.4167492389678955
1660273549650702800,0.319702880859375,2.8607583045959473,-4.476496696472168,1.285413146018982
1660273549652702700,0.32170263671875,2.96094012260437,-4.428849220275879,1.1522445678710938
1660273549654702800,0.323702880859375,3.013474702835083,-4.411134243011475,1.0838276147842407
1660273549656702700,0.32570263671875,3.1185433864593506,-4.382423400878906,0.9531024694442749
1660273549658702000,0.3277021484375,3.544316530227661,-4.2767438888549805,0.526107668876648
1660273549660701200,0.329701171875,3.544316530227661,-4.2767438888549805,0.526107668876648
1660273549662700300,0.3317001953125,3.544316530227661,-4.2767438888549805,0.526107668876648
1660273549664699400,0.333699462890625,3.617009401321411,-4.265748500823975,0.471129834651947
1660273549666699500,0.335699462890625,3.617009401321411,-4.265748500823975,0.471129834651947
1660273549668699600,0.33769970703125,3.761784553527832,-4.25780725479126,0.36972618103027344
1660273549670699500,0.339699462890625,3.9132790565490723,-4.258418083190918,0.2799290120601654
1660273549672699600,0.34169970703125,3.990248203277588,-4.260861396789551,0.23900102078914642
1660273549674699500,0.343699462890625,4.1399102210998535,-4.2797980308532715,0.1748601794242859
1660273549676699600,0.34569970703125,4.281020164489746,-4.309730529785156,0.13698652386665344
1660273549678700500,0.347700439453125,4.343328475952148,-4.342717170715332,0.13454307615756989
1660273549680701200,0.349701171875,4.4551167488098145,-4.455727577209473,0.21578814089298248
1660273549682702000,0.3517021484375,4.563239574432373,-4.545524597167969,0.35323283076286316
1660273549684703000,0.353702880859375,4.612109184265137,-4.56079626083374,0.422871470451355
1660273549686702800,0.355702880859375,4.698851585388184,-4.5394158363342285,0.5719226002693176
1660273549688703000,0.357702880859375,4.748942852020264,-4.532085418701172,0.7399105429649353
1660273549690702600,0.35970263671875,4.763603687286377,-4.5449137687683105,0.8303185701370239
1660273549692702500,0.361702392578125,4.771544933319092,-4.619439125061035,1.0068585872650146
1660273549694702300,0.363702392578125,4.762992858886719,-4.741612434387207,1.1846203804016113
1660273549696702500,0.365702392578125,4.752607822418213,-4.81002950668335,1.275639295578003
1660273549698701600,0.36770166015625,4.589507102966309,-5.219308853149414,2.2426390647888184
1660273549700700700,0.36970068359375,4.571180820465088,-5.2345805168151855,2.361146926879883
1660273549702700300,0.3717001953125,4.555298328399658,-5.244965553283691,2.470491886138916
1660273549704699400,0.373699462890625,4.555298328399658,-5.244965553283691,2.470491886138916
1660273549706698500,0.375698486328125,4.555298328399658,-5.244965553283691,2.470491886138916
1660273549708697600,0.377697509765625,4.555298328399658,-5.244965553283691,2.470491886138916
1660273549710697700,0.37969775390625,4.544302940368652,-5.252906799316406,2.5780041217803955
1660273549712697300,0.381697265625,4.529642105102539,-5.2620697021484375,2.7734808921813965
1660273549714697200,0.383697265625,4.523533344268799,-5.2596259117126465,2.8626673221588135
1660273549716697300,0.385697265625,4.515592098236084,-5.251073837280273,3.0129401683807373
1660273549718696200,0.3876962890625,4.516202926635742,-5.233358860015869,3.1338913440704346
1660273549720696300,0.3896962890625,4.518035888671875,-5.221141815185547,3.1815388202667236
1660273549722696200,0.3916962890625,4.524144172668457,-5.191209316253662,3.2615623474121094
1660273549724696300,0.3936962890625,4.538194179534912,-5.152113914489746,3.3147075176239014
1660273549726696200,0.3956962890625,4.549190044403076,-5.1227922439575195,3.336087703704834
1660273549728696300,0.3976962890625,4.57056999206543,-5.052542686462402,3.367241859436035
1660273549730696200,0.3996962890625,4.59867000579834,-4.960302352905273,3.380070209503174
1660273549732696300,0.4016962890625,4.613330841064453,-4.908378601074219,3.3794591426849365
1660273549734696200,0.4036962890625,4.6481499671936035,-4.794757843017578,3.3678529262542725
1660273549736696300,0.4056962890625,4.6902995109558105,-4.662810802459717,3.340974807739258
1660273549738693600,0.407693603515625,4.730005741119385,-4.522311687469482,3.301879405975342
1660273549740694300,0.4096943359375,4.749553680419922,-4.444731712341309,3.2768337726593018
1660273549742694100,0.411694091796875,4.792924880981445,-4.287128448486328,3.221856117248535
1660273549744694300,0.4136943359375,4.812472820281982,-4.203440189361572,3.1894800662994385
1660273549746694100,0.415694091796875,4.852179050445557,-4.036063194274902,3.1192307472229004
1660273549748694300,0.4176943359375,4.88883113861084,-3.8662424087524414,3.0465376377105713
1660273549750694400,0.4196943359375,4.9047136306762695,-3.780721426010132,3.009885787963867
1660273549752694300,0.4216943359375,4.9328131675720215,-3.6096789836883545,2.9298624992370605
1660273549754694400,0.4236943359375,4.956636905670166,-3.432528257369995,2.847395658493042
1660273549756694500,0.425694580078125,4.9688544273376465,-3.3439526557922363,2.8064677715301514
1660273549758695000,0.42769482421875,4.984126091003418,-3.166801691055298,2.7282769680023193
1660273549760695000,0.429695068359375,4.997564792633057,-2.993316173553467,2.6506969928741455
1660273549762695000,0.43169482421875,5.000619411468506,-2.90718412399292,2.6140451431274414
1660273549764695000,0.433695068359375,5.003062725067139,-2.742861270904541,2.549293279647827
1660273549766695000,0.43569482421875,4.996953964233398,-2.5852580070495605,2.490039348602295
1660273549768695000,0.437695068359375,4.995121479034424,-2.5131759643554688,2.464993953704834
1660273549770695000,0.43969482421875,4.979849815368652,-2.374509572982788,2.4185681343078613
1660273549772695000,0.441695068359375,4.959691047668457,-2.251114845275879,2.3855814933776855
1660273549774695000,0.44369482421875,4.948084831237793,-2.190639019012451,2.3721425533294678
1660273549776695000,0.445695068359375,4.913265705108643,-2.0855703353881836,2.3489296436309814
1660273549778694100,0.447694091796875,4.819803237915039,-1.9053651094436646,2.328160047531128
1660273549780693200,0.449693359375,4.819803237915039,-1.9053651094436646,2.328160047531128
1660273549782693400,0.451693359375,4.7904815673828125,-1.8662697076797485,2.3275492191314697
1660273549784693200,0.453693359375,4.72817325592041,-1.793576717376709,2.3324363231658936
1660273549786693400,0.455693359375,4.693964958190918,-1.7587573528289795,2.3373231887817383
1660273549788693500,0.457693603515625,4.622493743896484,-1.6940057277679443,2.353816509246826
1660273549790693400,0.459693359375,4.544302940368652,-1.6243669986724854,2.375807762145996
1660273549792693500,0.461693603515625,4.5027642250061035,-1.5895477533340454,2.392301082611084
1660273549794693600,0.463693603515625,4.423351764678955,-1.5162439346313477,2.4216225147247314
1660273549796693000,0.46569287109375,4.339663028717041,-1.4368313550949097,2.4607179164886475
1660273549798694000,0.46769384765625,4.300567626953125,-1.395903468132019,2.4833199977874756
1660273549800693800,0.46969384765625,4.221155166625977,-1.3140474557876587,2.529134750366211
1660273549802693600,0.471693603515625,4.1429643630981445,-1.232191562652588,2.5828909873962402
1660273549804693800,0.47369384765625,4.105701446533203,-1.1918745040893555,2.6091582775115967
1660273549806693600,0.475693603515625,4.033008575439453,-1.119181513786316,2.6647469997406006
1660273549808693800,0.47769384765625,3.9560396671295166,-1.059316635131836,2.7197248935699463
1660273549810693600,0.479693603515625,3.9163334369659424,-1.0361038446426392,2.7478246688842773
1660273549812693800,0.48169384765625,3.842418670654297,-1.0018953084945679,2.805245876312256
1660273549814693600,0.483693603515625,3.761173725128174,-0.9872345924377441,2.8651106357574463
1660273549816693500,0.485693603515625,3.722078323364258,-0.9896780848503113,2.892599582672119
1660273549818692600,0.487692626953125,3.4441347122192383,-1.0483211278915405,3.0947959423065186
1660273549820691700,0.489691650390625,3.409315347671509,-1.0648144483566284,3.1228959560394287
1660273549822690800,0.49169091796875,3.409315347671509,-1.0648144483566284,3.1228959560394287
1660273549824690000,0.49368994140625,3.409315347671509,-1.0648144483566284,3.1228959560394287
1660273549826689800,0.495689697265625,3.3720524311065674,-1.081918716430664,3.148552179336548
1660273549828690000,0.49768994140625,3.3354005813598633,-1.1045206785202026,3.171154260635376
1660273549830690000,0.49968994140625,3.265151023864746,-1.147281289100647,3.2065844535827637
1660273549832690000,0.50168994140625,3.194901704788208,-1.1943179368972778,3.2401819229125977
1660273549834690000,0.50368994140625,3.1576387882232666,-1.2205851078033447,3.2542319297790527
1660273549836690000,0.50568994140625,3.089221954345703,-1.2651783227920532,3.2768337726593018
1660273549838690800,0.50769091796875,3.018972396850586,-1.3140474557876587,3.2951598167419434
1660273549840691700,0.509691650390625,2.98293137550354,-1.3360387086868286,3.3012685775756836
1660273549842691800,0.51169189453125,2.91023850440979,-1.3824644088745117,3.310431480407715
1660273549844691700,0.513691650390625,2.840599775314331,-1.430722713470459,3.3159291744232178
1660273549846691600,0.515691650390625,2.8057804107666016,-1.452713966369629,3.3116531372070312
1660273549848691700,0.517691650390625,2.7300331592559814,-1.497917890548706,3.3043227195739746
1660273549850691800,0.51969189453125,2.6634488105773926,-1.5364024639129639,3.2890512943267822
1660273549852691700,0.521691650390625,2.6274077892303467,-1.5535067319869995,3.2780556678771973
1660273549854691600,0.523691650390625,2.560823440551758,-1.5736652612686157,3.249955892562866
1660273549856692200,0.525692138671875,2.4985151290893555,-1.587104320526123,3.213303804397583
1660273549858691300,0.52769140625,2.220571517944336,-1.5877151489257812,3.0031661987304688
1660273549860690400,0.5296904296875,2.186974048614502,-1.5803847312927246,2.970179557800293
1660273549862689500,0.531689453125,2.1527655124664307,-1.5681674480438232,2.933527708053589
1660273549864688600,0.533688720703125,2.1527655124664307,-1.5681674480438232,2.933527708053589
1660273549866688000,0.53568798828125,2.1527655124664307,-1.5681674480438232,2.933527708053589
1660273549868687000,0.53768701171875,2.1527655124664307,-1.5681674480438232,2.933527708053589
1660273549870687200,0.539687255859375,2.119778871536255,-1.5516741275787354,2.9017627239227295
1660273549872687000,0.54168701171875,2.0513617992401123,-1.5138003826141357,2.833345651626587
1660273549874687200,0.543687255859375,1.9829449653625488,-1.471039891242981,2.7673723697662354
1660273549876687000,0.54568701171875,1.9462929964065552,-1.4569900035858154,2.725222587585449
1660273549878687200,0.547687255859375,1.860771894454956,-1.4637094736099243,2.593275785446167
1660273549880687000,0.54968701171875,1.7691421508789062,-1.4368313550949097,2.453387498855591
1660273549882687200,0.551687255859375,1.7257707118988037,-1.4215598106384277,2.386803150177002
1660273549884687000,0.55368701171875,1.630475640296936,-1.4673746824264526,2.191937208175659
1660273549886687200,0.555687255859375,1.510135293006897,-1.5877151489257812,1.8932241201400757
1660273549888687000,0.55768701171875,1.4551573991775513,-1.6207019090652466,1.7215709686279297
1660273549890687200,0.559687255859375,1.3348169326782227,-1.6549103260040283,1.4094188213348389
1660273549892687000,0.56168701171875,1.2743412256240845,-1.5602262020111084,1.067945122718811
1660273549894687200,0.563687255859375,1.240743637084961,-1.469818115234375,0.9140071272850037
1660273549896687000,0.56568701171875,1.203480839729309,-1.2657891511917114,0.6794348955154419
1660273549898684700,0.5676845703125,1.1204031705856323,0.09094256162643433,0.555429220199585
1660273549900682200,0.56968212890625,1.0959686040878296,0.18745927512645721,0.5383250117301941
1660273549902680000,0.57168017578125,1.070312261581421,0.2754238545894623,0.5138903856277466
1660273549904678100,0.57367822265625,1.070312261581421,0.2754238545894623,0.5138903856277466
1660273549906676500,0.575676513671875,1.070312261581421,0.2754238545894623,0.5138903856277466
1660273549908674800,0.5776748046875,1.070312261581421,0.2754238545894623,0.5138903856277466
1660273549910675000,0.579675048828125,1.0006736516952515,0.40248385071754456,0.4625777006149292
1660273549912674600,0.581674560546875,0.956691324710846,0.4470770061016083,0.4369213581085205
1660273549914674400,0.58367431640625,0.8730027675628662,0.5222133994102478,0.3813326358795166
1660273549916674600,0.585674560546875,0.7935903072357178,0.5906303524971008,0.32818734645843506
1660273549918674700,0.5876748046875,0.7508297562599182,0.630336582660675,0.30802878737449646
1660273549920673500,0.589673583984375,0.6781367659568787,0.715246856212616,0.270766019821167
1660273549922673200,0.591673095703125,0.6152176856994629,0.7903832793235779,0.2554943859577179
1660273549924672800,0.5936728515625,0.5834526419639587,0.8178722262382507,0.2591595947742462
1660273549926672600,0.595672607421875,0.5272530913352966,0.8795695900917053,0.26710084080696106
1660273549928672000,0.597672119140625,0.4838816225528717,0.9266062378883362,0.2921462953090668
1660273549930671900,0.599671875,0.46189048886299133,0.9388235211372375,0.3147483170032501
1660273549932671500,0.60167138671875,0.4075234830379486,0.9296605587005615,0.3776674270629883
1660273549934671400,0.60367138671875,0.368428111076355,0.9162214994430542,0.42898011207580566
1660273549936671500,0.60567138671875,0.3513238728046417,0.8814021944999695,0.4625777006149292
1660273549938668800,0.607668701171875,0.28962647914886475,0.7134142518043518,0.5737552046775818
1660273549940669000,0.6096689453125,0.2767983078956604,0.6480516791343689,0.5981897711753845
1660273549942668800,0.611668701171875,0.2627484202384949,0.5778021812438965,0.622624397277832
1660273549944669000,0.6136689453125,0.23953554034233093,0.4098142087459564,0.6733261942863464
1660273549946668800,0.615668701171875,0.2260964959859848,0.23510676622390747,0.7197519540786743
1660273549948669000,0.6176689453125,0.22426390647888184,0.15202908217906952,0.7423539757728577
1660273549950668800,0.619668701171875,0.2157117873430252,-0.016569720581173897,0.7912232279777527
1660273549952669000,0.6216689453125,0.2114357352256775,-0.1851685345172882,0.8468119502067566
1660273549954668800,0.623668701171875,0.21204659342765808,-0.2670244574546814,0.8804095387458801
1660273549956668700,0.625668701171875,0.2059379518032074,-0.4276820421218872,0.9573785662651062
1660273549958668500,0.62766845703125,0.2016618847846985,-0.5883395671844482,1.04289972782135
1660273549960668700,0.629668701171875,0.2004401534795761,-0.6689738035202026,1.0868819952011108
1660273549962668500,0.63166845703125,0.19860756397247314,-0.8357400298118591,1.1730140447616577
1660273549964668400,0.63366845703125,0.19005544483661652,-0.9908998012542725,1.2481504678726196
1660273549966668500,0.63566845703125,0.18944458663463593,-1.063592791557312,1.278693675994873
1660273549968668400,0.63766845703125,0.1863902509212494,-1.196150541305542,1.325730323791504
1660273549970668300,0.639668212890625,0.18150334060192108,-1.309160590171814,1.3581061363220215
1660273549972668400,0.64166845703125,0.17661641538143158,-1.3629167079925537,1.372156023979187
1660273549974668300,0.643668212890625,0.16867516934871674,-1.4484378099441528,1.3978123664855957
1660273549976668400,0.64566845703125,0.15279266238212585,-1.5107461214065552,1.4149166345596313
1660273549978667500,0.64766748046875,0.1399645060300827,-1.5779412984848022,1.4356859922409058
1660273549980666600,0.64966650390625,0.1399645060300827,-1.595045566558838,1.439351201057434
1660273549982666500,0.65166650390625,0.12774719297885895,-1.6060410737991333,1.43751859664917
1660273549984666600,0.65366650390625,0.12224940955638885,-1.6176475286483765,1.4387403726577759
1660273549986666800,0.655666748046875,0.11552988737821579,-1.6255887746810913,1.4271339178085327
1660273549988666400,0.657666259765625,0.11308643221855164,-1.623145341873169,1.3972015380859375
1660273549990666500,0.65966650390625,0.1100321039557457,-1.6103171110153198,1.374599575996399
1660273549992666400,0.661666259765625,0.11430815607309341,-1.582828164100647,1.3220651149749756
1660273549994666500,0.66366650390625,0.11675161868333817,-1.5339590311050415,1.2536481618881226
1660273549996666400,0.665666259765625,0.11736248433589935,-1.5064700841903687,1.2151637077331543
1660273549998667300,0.667667236328125,0.12896892428398132,-1.4411075115203857,1.1290316581726074
1660273550000667100,0.669667236328125,0.13813190162181854,-1.3671927452087402,1.0374019145965576
1660273550002667300,0.671667236328125,0.144851416349411,-1.3311517238616943,0.9891435503959656
1660273550004667100,0.673667236328125,0.15645785629749298,-1.2529609203338623,0.8993463516235352
1660273550006667300,0.675667236328125,0.1711186319589615,-1.1747702360153198,0.8058840036392212
1660273550008667100,0.677667236328125,0.1753946840763092,-1.136285662651062,0.764345109462738
1660273550010667000,0.6796669921875,0.18394680321216583,-1.0617601871490479,0.6837109327316284
1660273550012667100,0.681667236328125,0.1912771761417389,-0.9921215176582336,0.6116288304328918
1660273550014667500,0.68366748046875,0.19249890744686127,-0.9554696083068848,0.5816964507102966
1660273550016667600,0.685667724609375,0.18944458663463593,-0.8888853192329407,0.5212207436561584
1660273550018666800,0.687666748046875,0.16439910233020782,-0.6237697601318359,0.35323283076286316
1660273550020666000,0.689666015625,0.16439910233020782,-0.6237697601318359,0.35323283076286316
1660273550022665200,0.691665283203125,0.16439910233020782,-0.6237697601318359,0.35323283076286316
1660273550024664300,0.693664306640625,0.16439910233020782,-0.6237697601318359,0.35323283076286316
1660273550026665000,0.6956650390625,0.16256651282310486,-0.5846744179725647,0.3318525552749634
1660273550028665000,0.6976650390625,0.15645785629749298,-0.4985423982143402,0.28787025809288025
1660273550030665200,0.699665283203125,0.15340353548526764,-0.41485387086868286,0.24816401302814484
1660273550032665000,0.7016650390625,0.14912748336791992,-0.377591073513031,0.2353358417749405
1660273550034665200,0.703665283203125,0.14790575206279755,-0.2981785833835602,0.20051652193069458
1660273550036665000,0.7056650390625,0.1497383415699005,-0.25969409942626953,0.1797471046447754
1660273550038666000,0.707666015625,0.15829046070575714,-0.1912771761417389,0.1540907621383667
1660273550040667000,0.7096669921875,0.16745343804359436,-0.12713633477687836,0.12782354652881622
1660273550042666800,0.711666748046875,0.1753946840763092,-0.09781479835510254,0.1137736514210701
1660273550044667000,0.7136669921875,0.1906663179397583,-0.04711298272013664,0.098502017557621
1660273550046666800,0.715666748046875,0.19921842217445374,-0.00007635815563844517,0.08261952549219131
1660273550048667100,0.717667236328125,0.206548810005188,0.02252565510571003,0.07467827945947647
1660273550050667000,0.7196669921875,0.2267073690891266,0.07383833825588226,0.050854530185461044
1660273550052667100,0.721667236328125,0.23525947332382202,0.13859005272388458,0.01664607785642147
1660273550054667000,0.7236669921875,0.24320071935653687,0.17402023077011108,-0.007788531947880983
1660273550056667000,0.7256669921875,0.2554180324077606,0.24488060176372528,-0.06520986557006836
1660273550058666000,0.727666015625,0.14912748336791992,0.329790860414505,-0.28328874707221985
1660273550060665300,0.729665283203125,0.10758864134550095,0.2754238545894623,-0.2838996350765228
1660273550062664400,0.73166455078125,0.10758864134550095,0.2754238545894623,-0.2838996350765228
1660273550064663600,0.73366357421875,0.10758864134550095,0.2754238545894623,-0.2838996350765228
1660273550066663700,0.73566357421875,0.10758864134550095,0.2754238545894623,-0.2838996350765228
1660273550068663600,0.73766357421875,0.023900102823972702,0.11415544152259827,-0.24358251690864563
1660273550070663700,0.73966357421875,-0.020693060010671616,-0.07338018715381622,-0.16294831037521362
1660273550072663600,0.74166357421875,-0.032910365611314774,-0.15951219201087952,-0.1238529309630394
1660273550074663200,0.7436630859375,-0.047571130096912384,-0.3024546504020691,-0.034666601568460464
1660273550076663000,0.7456630859375,-0.0823904499411583,-0.40569087862968445,0.047800205647945404
1660273550078664700,0.747664794921875,-0.1123228445649147,-0.44600799679756165,0.08811730891466141
1660273550080665600,0.74966552734375,-0.16485725343227386,-0.5174792408943176,0.1547016203403473
1660273550082666200,0.751666259765625,-0.21433734893798828,-0.5895613431930542,0.19074267148971558
1660273550084667100,0.753667236328125,-0.23693935573101044,-0.6335436105728149,0.19746218621730804
1660273550086666500,0.75566650390625,-0.28275424242019653,-0.719675600528717,0.19074267148971558
1660273550088666400,0.757666259765625,-0.3200170397758484,-0.814359724521637,0.17302757501602173
1660273550090666200,0.759666259765625,-0.3444516360759735,-0.85284423828125,0.16630806028842926
1660273550092666400,0.761666259765625,-0.38232529163360596,-0.9298132658004761,0.15225815773010254
1660273550094666500,0.76366650390625,-0.4220315217971802,-0.9939541220664978,0.1595885455608368
1660273550096666400,0.765666259765625,-0.4452444016933441,-1.024497389793396,0.16752979159355164
1660273550098665700,0.767665771484375,-0.773279070854187,-1.1827114820480347,0.2964223623275757
1660273550100664800,0.769664794921875,-0.8300895094871521,-1.2126438617706299,0.30802878737449646
1660273550102664000,0.771663818359375,-0.8881217241287231,-1.262123942375183,0.34162637591362
1660273550104663000,0.7736630859375,-0.8881217241287231,-1.262123942375183,0.34162637591362
1660273550106662100,0.775662109375,-0.8881217241287231,-1.262123942375183,0.34162637591362
1660273550108661500,0.77766162109375,-0.8881217241287231,-1.262123942375183,0.34162637591362
1660273550110661400,0.779661376953125,-0.9400452375411987,-1.2963323593139648,0.3501785099506378
1660273550112661500,0.78166162109375,-1.0151816606521606,-1.3543646335601807,0.37827831506729126
1660273550114661400,0.783661376953125,-1.0408380031585693,-1.3684145212173462,0.38499781489372253
1660273550116661500,0.78566162109375,-1.0988701581954956,-1.3500885963439941,0.38866302371025085
1660273550118661400,0.787661376953125,-1.1483503580093384,-1.2877802848815918,0.3868304193019867
1660273550120665300,0.789665283203125,-1.1856130361557007,-1.2089786529541016,0.39477166533470154
1660273550122665500,0.79166552734375,-1.1984412670135498,-1.1515573263168335,0.39843684434890747
1660273550124665300,0.793665283203125,-1.219821572303772,-1.0373255014419556,0.39965859055519104
1660273550126665500,0.79566552734375,-1.2192106246948242,-0.9707412123680115,0.3917173445224762
1660273550128665300,0.797665283203125,-1.2179889678955078,-0.8418486714363098,0.36850446462631226
1660273550130665500,0.79966552734375,-1.2063825130462646,-0.7172321677207947,0.33918291330337524
1660273550132663800,0.801663818359375,-1.1966086626052856,-0.65248042345047,0.3202461004257202
1660273550134663700,0.80366357421875,-1.1758391857147217,-0.530307412147522,0.27870726585388184
1660273550136663800,0.805663818359375,-1.1373547315597534,-0.41668644547462463,0.23289237916469574
1660273550138661000,0.8076611328125,-1.097037672996521,-0.30917418003082275,0.1797471046447754
1660273550140661200,0.8096611328125,-1.0738247632980347,-0.26397013664245605,0.15164729952812195
1660273550142661400,0.811661376953125,-1.0139600038528442,-0.20471622049808502,0.10705413669347763
1660273550144661500,0.81366162109375,-0.9870818853378296,-0.18150334060192108,0.08506298810243607
1660273550146661600,0.81566162109375,-0.9235519170761108,-0.16256651282310486,0.05207626149058342
1660273550148661500,0.81766162109375,-0.8557458519935608,-0.1705077588558197,0.023365596309304237
1660273550150661600,0.81966162109375,-0.8184830546379089,-0.18822285532951355,0.014813481830060482
1660273550152661800,0.821661865234375,-0.7445683479309082,-0.24320071935653687,0.006872233934700489
1660273550154661600,0.82366162109375,-0.6700428128242493,-0.30428725481033325,0.0019853119738399982
1660273550156661800,0.825661865234375,-0.6291148662567139,-0.35926511883735657,0.017867809161543846
1660273550158661600,0.82766162109375,-0.5619196891784668,-0.44600799679756165,0.038026362657547
1660273550160661800,0.829661865234375,-0.4855615198612213,-0.5602397918701172,0.07467827945947647
1660273550162661600,0.83166162109375,-0.44829872250556946,-0.6194937229156494,0.09239336848258972
1660273550164661800,0.833661865234375,-0.37866008281707764,-0.7312820553779602,0.13271047174930573
1660273550166661600,0.83566162109375,-0.31085404753685,-0.8351291418075562,0.18035796284675598
1660273550168661500,0.83766162109375,-0.2735912799835205,-0.901102602481842,0.21334469318389893
1660273550170661600,0.83966162109375,-0.20578522980213165,-1.0177778005599976,0.2811507284641266
1660273550172661500,0.84166162109375,-0.13003793358802795,-1.1124619245529175,0.34284812211990356
1660273550174661600,0.84366162109375,-0.09094256162643433,-1.1631637811660767,0.37339138984680176
1660273550176661800,0.845661865234375,-0.021303925663232803,-1.252350091934204,0.43447789549827576
1660273550178660900,0.847660888671875,0.11430815607309341,-1.415451169013977,0.5377141237258911
1660273550180660000,0.849659912109375,0.11430815607309341,-1.415451169013977,0.5377141237258911
1660273550182659800,0.851659912109375,0.1460731476545334,-1.4270576238632202,0.5517640113830566
1660273550184660000,0.853659912109375,0.2016618847846985,-1.4985288381576538,0.5871942043304443
1660273550186659800,0.855659912109375,0.2254856377840042,-1.528461217880249,0.5981897711753845
1660273550188660000,0.857659912109375,0.2761874496936798,-1.55656099319458,0.6018549799919128
1660273550190659800,0.859659912109375,0.30856332182884216,-1.5895477533340454,0.6085745096206665
1660273550192660200,0.86166015625,0.32383492588996887,-1.6005432605743408,0.5981897711753845
1660273550194660400,0.863660400390625,0.3623194396495819,-1.5779412984848022,0.5597052574157715
1660273550196660200,0.86566015625,0.39591702818870544,-1.5510631799697876,0.5303837656974792
1660273550198661000,0.8676611328125,0.40630173683166504,-1.5522849559783936,0.5090034604072571
1660273550200661200,0.8696611328125,0.4429536461830139,-1.5278503894805908,0.45463645458221436
1660273550202661000,0.8716611328125,0.4747186601161957,-1.519909143447876,0.41004329919815063
1660273550204661000,0.873660888671875,0.48693597316741943,-1.5034157037734985,0.3819434940814972
1660273550206661000,0.8756611328125,0.5241987109184265,-1.48081374168396,0.32757648825645447
1660273550208661000,0.877660888671875,0.5449681282043457,-1.5192981958389282,0.29825496673583984
1660273550210660900,0.879660888671875,0.5480225086212158,-1.5125787258148193,0.28725937008857727
1660273550212660700,0.88166064453125,0.5626832246780396,-1.4985288381576538,0.25671613216400146
1660273550214660900,0.883660888671875,0.567570149898529,-1.499139666557312,0.24266621470451355
1660273550216660700,0.88566064453125,0.5657375454902649,-1.5437328815460205,0.24938572943210602
1660273550218660000,0.88766015625,0.5504659414291382,-1.7618117332458496,0.4283692538738251
1660273550220659200,0.8896591796875,0.5504659414291382,-1.7618117332458496,0.4283692538738251
1660273550222658300,0.891658203125,0.5516876578330994,-1.802128791809082,0.4680754840373993
1660273550224657400,0.893657470703125,0.5516876578330994,-1.802128791809082,0.4680754840373993
1660273550230799600,0.899799560546875,0.5468007326126099,-1.849165439605713,0.5090034604072571
1660273550232799700,0.9017998046875,0.5468007326126099,-1.9181932210922241,0.5627595782279968
1660273550234799600,0.903799560546875,0.5382486581802368,-2.003103494644165,0.6629415154457092
1660273550236799700,0.9057998046875,0.5529094338417053,-2.10878324508667,0.7991644740104675
1660273550238799600,0.907799560546875,0.5608506798744202,-2.128330945968628,0.8602510094642639
1660273550240799500,0.909799560546875,0.5755113959312439,-2.2498929500579834,1.003804326057434
1660273550242800400,0.91180029296875,0.6036112308502197,-2.326251268386841,1.1467467546463013
1660273550244802300,0.91380224609375,0.6176611185073853,-2.3708443641662598,1.2176071405410767
1660273550246802200,0.91580224609375,0.6402631402015686,-2.4013876914978027,1.3483322858810425
1660273550248801800,0.9178017578125,0.6598108410835266,-2.4557547569274902,1.4692835807800293
1660273550250801700,0.9198017578125,0.6756933331489563,-2.4850761890411377,1.5334244966506958
1660273550252801800,0.9218017578125,0.6976844668388367,-2.5009586811065674,1.6342172622680664
1660273550254801700,0.9238017578125,0.7184538841247559,-2.4814109802246094,1.7172949314117432
1660273550256801800,0.9258017578125,0.7367798686027527,-2.4649176597595215,1.7563903331756592
1660273550258801700,0.9278017578125,0.7722100019454956,-2.4178810119628906,1.8193094730377197
1660273550260801800,0.9298017578125,0.8100836873054504,-2.3763420581817627,1.8571830987930298
1660273550262801000,0.93180078125,0.995786726474762,-1.9969948530197144,1.8596265316009521
1660273550264800000,0.933800048828125,0.995786726474762,-1.9969948530197144,1.8596265316009521
1660273550266799000,0.935799072265625,0.995786726474762,-1.9969948530197144,1.8596265316009521
1660273550268798200,0.937798095703125,0.995786726474762,-1.9969948530197144,1.8596265316009521
1660273550270798300,0.93979833984375,1.0220539569854736,-1.9304105043411255,1.8388570547103882
1660273550272798200,0.941798095703125,1.0868055820465088,-1.7844136953353882,1.763109803199768
1660273550274798600,0.943798583984375,1.1216249465942383,-1.7202728986740112,1.7234035730361938
1660273550276798500,0.945798583984375,1.2187525033950806,-1.538235068321228,1.6146695613861084
1660273550278798600,0.947798583984375,1.347034215927124,-1.3329843282699585,1.476613998413086
1660273550280798500,0.949798583984375,1.4062881469726562,-1.2456306219100952,1.4008667469024658
1660273550282799400,0.95179931640625,1.508913516998291,-1.081918716430664,1.2414308786392212
1660273550284800300,0.95380029296875,1.5816065073013306,-0.8699484467506409,1.0746647119522095
1660273550286801200,0.95580126953125,1.6097062826156616,-0.7722100019454956,1.000749945640564
1660273550288802000,0.957802001953125,1.640249490737915,-0.5816200971603394,0.8419250249862671
1660273550290802000,0.959802001953125,1.632919192314148,-0.4282929003238678,0.6727153658866882
1660273550292801500,0.961801513671875,1.6194801330566406,-0.3665955066680908,0.5908594131469727
1660273550294801400,0.963801513671875,1.5797739028930664,-0.26458099484443665,0.4356996417045593
1660273550296801500,0.965801513671875,1.5156329870224,-0.16684256494045258,0.28787025809288025
1660273550298801400,0.967801513671875,1.4844789505004883,-0.12224940955638885,0.22189679741859436
1660273550300801500,0.969801513671875,1.4172837734222412,-0.02756529487669468,0.08689557760953903
1660273550302800600,0.971800537109375,0.9774607419967651,0.6804275512695312,-0.5881105065345764
1660273550304799000,0.973799072265625,0.9774607419967651,0.6804275512695312,-0.5881105065345764
1660273550306798000,0.975798095703125,0.9255372285842896,0.7745007872581482,-0.6748533844947815
1660273550308797700,0.977797607421875,0.9255372285842896,0.7745007872581482,-0.6748533844947815
1660273550310796800,0.979796875,0.9255372285842896,0.7745007872581482,-0.6748533844947815
1660273550312796000,0.9817958984375,0.9255372285842896,0.8844565153121948,-0.6748533844947815
1660273550314795000,0.983794921875,0.8210792541503906,1.01212739944458,-0.8520042896270752
1660273550316795100,0.985795166015625,0.7685448527336121,1.151404619216919,-0.9356928467750549
1660273550318795000,0.987794921875,0.6640868782997131,1.4354569911956787,-1.1134545803070068
1660273550320795100,0.989795166015625,0.5614615082740784,1.7146223783493042,-1.2710578441619873
1660273550322795000,0.991794921875,0.5144249200820923,1.8874973058700562,-1.3535246849060059
1660273550324795100,0.993795166015625,0.4075234830379486,2.236912250518799,-1.516014814376831
1660273550326795000,0.995794921875,0.30062204599380493,2.6272549629211426,-1.6870571374893188
1660273550328795100,0.997795166015625,0.24747678637504578,2.8105146884918213,-1.7878499031066895
1660273550330795000,0.999794921875,0.16317738592624664,3.1855859756469727,-1.9900462627410889
1660273550332795100,1.001795166015625,0.10453431308269501,3.574096202850342,-2.1708624362945557
1660273550334795000,1.003794921875,0.08865182101726532,3.7652969360351562,-2.26432466506958
1660273550336795600,1.005795654296875,0.0697149932384491,4.092720985412598,-2.4329235553741455
1660273550338795500,1.00779541015625,0.06604980677366257,4.356614589691162,-2.6009113788604736
1660273550340795600,1.009795654296875,0.06849326193332672,4.464127063751221,-2.677269697189331
1660273550342793000,1.01179296875,0.10819950699806213,4.776889801025391,-2.914896249771118
1660273550344793000,1.01379296875,0.11430815607309341,4.856302261352539,-2.98697829246521
1660273550346793000,1.01579296875,0.1253037303686142,4.922886848449707,-3.073721170425415
1660273550348793000,1.01779296875,0.14240795373916626,5.033453464508057,-3.2343788146972656
1660273550350793000,1.01979296875,0.1607339233160019,5.085376739501953,-3.3993122577667236
1660273550352792800,1.021792724609375,0.16195565462112427,5.079878807067871,-3.481168270111084
1660273550354793000,1.02379296875,0.18761198222637177,5.0022993087768555,-3.6674821376800537
1660273550356792300,1.025792236328125,0.2822960913181305,4.803156852722168,-3.8684568405151367
1660273550358792400,1.02779248046875,0.35071301460266113,4.671821117401123,-3.960697650909424
1660273550360792300,1.029792236328125,0.5248095989227295,4.377995014190674,-4.132961750030518
1660273550362792400,1.03179248046875,0.7166212797164917,4.059733867645264,-4.249636650085449
1660273550364792300,1.033792236328125,0.8070293664932251,3.899076461791992,-4.2697954177856445
1660273550366792400,1.03579248046875,0.98540198802948,3.5624897480010986,-4.253912925720215
1660273550368792300,1.037792236328125,1.1631637811660767,3.1409926414489746,-4.165337562561035
1660273550370792400,1.03979248046875,1.2401328086853027,2.896646738052368,-4.09447717666626
1660273550372792800,1.041792724609375,1.38612961769104,2.368248224258423,-3.916715145111084
1660273550374792700,1.043792724609375,1.5235742330551147,1.8019760847091675,-3.699247121810913
1660273550376792800,1.045792724609375,1.5907694101333618,1.494710922241211,-3.578906774520874
1660273550378792700,1.047792724609375,1.698892593383789,0.8752935528755188,-3.32784104347229
1660273550380792800,1.049792724609375,1.8051831722259521,0.218613401055336,-3.056617021560669
1660273550382792000,1.0517919921875,1.9243018627166748,-0.7777078151702881,-2.637563467025757
1660273550384791000,1.053791015625,1.9615646600723267,-1.1045206785202026,-2.501951217651367
1660273550386791200,1.055791259765625,2.003103494644165,-1.425225019454956,-2.366950035095215
1660273550388791300,1.057791259765625,2.041588068008423,-1.737987995147705,-2.2313380241394043
1660273550390791200,1.059791259765625,2.1020636558532715,-2.343355417251587,-1.9588921070098877
1660273550392791000,1.061791015625,2.1600959300994873,-2.896799325942993,-1.6998852491378784
1660273550394791000,1.063791015625,2.196136951446533,-3.163747549057007,-1.5734361410140991
1660273550396790800,1.065790771484375,2.242562770843506,-3.6573266983032227,-1.3266465663909912
1660273550398791000,1.067791015625,2.287155866622925,-4.09714937210083,-1.1024590730667114
1660273550400790800,1.069790771484375,2.3109796047210693,-4.296902656555176,-0.9949467778205872
1660273550402791700,1.071791748046875,2.343966245651245,-4.674417018890381,-0.7958046793937683
1660273550404791800,1.073791748046875,2.3696227073669434,-5.012836456298828,-0.6101016402244568
1660273550406791700,1.075791748046875,2.3867268562316895,-5.16982889175415,-0.52702397108078
1660273550408791600,1.07779150390625,2.4068853855133057,-5.473428726196289,-0.3608686327934265
1660273550410791700,1.079791748046875,2.427043914794922,-5.773974418640137,-0.20693060755729675
1660273550412791300,1.081791259765625,2.4368178844451904,-5.9181389808654785,-0.13118331134319305
1660273550414791400,1.08379150390625,2.4563655853271484,-6.209521770477295,0.011759156361222267
1660273550416791800,1.085791748046875,2.4740805625915527,-6.4960174560546875,0.15531249344348907
1660273550418791700,1.087791748046875,2.485687017440796,-6.623688220977783,0.22861631214618683
1660273550420791600,1.08979150390625,2.502180337905884,-6.7470831871032715,0.4729624092578888
1660273550422790700,1.091790771484375,2.3311381340026855,-5.91752815246582,2.124742031097412
1660273550424790000,1.0937900390625,2.3311381340026855,-5.91752815246582,2.124742031097412
1660273550426789000,1.0957890625,2.3311381340026855,-5.91752815246582,2.124742031097412
1660273550428788200,1.097788330078125,2.3311381340026855,-5.91752815246582,2.124742031097412
1660273550430788400,1.099788330078125,2.295707941055298,-5.783748626708984,2.3568708896636963
1660273550432788000,1.1017880859375,2.2162954807281494,-5.501528739929199,2.777756929397583
1660273550434788000,1.1037880859375,2.1167244911193848,-5.241910934448242,3.1442761421203613
1660273550436788200,1.105788330078125,2.067244291305542,-5.130122661590576,3.3116531372070312
1660273550438788000,1.1077880859375,1.9719493389129639,-4.9328131675720215,3.601203441619873
1660273550440788200,1.109788330078125,1.8681023120880127,-4.7990336418151855,3.830277919769287
1660273550442788900,1.111788818359375,1.8204548358917236,-4.761159896850586,3.917020559310913
1660273550444789800,1.113789794921875,1.7227163314819336,-4.745277404785156,4.075845718383789
1660273550446789600,1.11578955078125,1.6225343942642212,-4.803920745849609,4.186412334442139
1660273550448789800,1.117789794921875,1.5706108808517456,-4.857676982879639,4.226729393005371
1660273550450789600,1.11978955078125,1.4734833240509033,-5.007339000701904,4.2804856300354
1660273550452790000,1.1217900390625,1.3800209760665894,-5.175326824188232,4.283539772033691
1660273550454790000,1.123789794921875,1.3329843282699585,-5.262680530548096,4.279263973236084
1660273550456790300,1.125790283203125,1.2541826963424683,-5.432500839233398,4.240779399871826
1660273550458790400,1.127790283203125,1.1814897060394287,-5.587660789489746,4.165031909942627
1660273550460790300,1.129790283203125,1.148503065109253,-5.656077861785889,4.117995262145996
1660273550462789600,1.13178955078125,1.0501537322998047,-5.6976165771484375,3.6244161128997803
1660273550464788700,1.133788818359375,1.0501537322998047,-5.6976165771484375,3.6244161128997803
1660273550466787800,1.135787841796875,1.0587058067321777,-5.629810333251953,3.5297319889068604
1660273550468787000,1.137786865234375,1.0587058067321777,-5.629810333251953,3.5297319889068604
1660273550470787000,1.139787109375,1.0727556943893433,-5.553452491760254,3.4301609992980957
1660273550472787500,1.141787353515625,1.0910817384719849,-5.475261688232422,3.340974807739258
1660273550474787300,1.143787353515625,1.1515573263168335,-5.26451301574707,3.1345021724700928
1660273550476788500,1.14578857421875,1.2303589582443237,-5.03421688079834,2.947577476501465
1660273550478788400,1.147788330078125,1.2725086212158203,-4.909600257873535,2.8608345985412598
1660273550480788500,1.14978857421875,1.3623058795928955,-4.658534526824951,2.7099509239196777
1660273550482789400,1.151789306640625,1.4624876976013184,-4.462447166442871,2.582280158996582
1660273550484790000,1.1537900390625,1.5205199718475342,-4.398305892944336,2.532189130783081
1660273550486791000,1.155791015625,1.6860644817352295,-4.255974292755127,2.433839797973633
1660273550488792000,1.1577919921875,1.9151389598846436,-4.076991081237793,2.347707748413086
1660273550490792000,1.1597919921875,2.0244836807250977,-3.981696128845215,2.3098342418670654
1660273550492792000,1.1617919921875,2.186974048614502,-3.7794995307922363,2.249969482421875
1660273550494792000,1.1637919921875,2.25722336769104,-3.599294424057007,2.216371774673462
1660273550496791800,1.165791748046875,2.271273374557495,-3.521103620529175,2.2127065658569336
1660273550498792000,1.1677919921875,2.259666919708252,-3.3781611919403076,2.2261457443237305
1660273550500791800,1.169791748046875,2.206521511077881,-3.2407164573669434,2.2566888332366943
1660273550502791200,1.171791259765625,1.9334648847579956,-2.402609348297119,2.2481367588043213
1660273550504790300,1.173790283203125,1.8992563486099243,-2.285323143005371,2.2322542667388916
1660273550506789400,1.175789306640625,1.8992563486099243,-2.285323143005371,2.2322542667388916
1660273550508788500,1.17778857421875,1.8650479316711426,-2.175978422164917,2.2175936698913574
1660273550510787600,1.17978759765625,1.8650479316711426,-2.175978422164917,2.2175936698913574
1660273550512787000,1.181786865234375,1.8650479316711426,-2.175978422164917,2.2175936698913574
1660273550514786800,1.183786865234375,1.8277851343154907,-2.070298671722412,2.202322006225586
1660273550516786400,1.185786376953125,1.7502052783966064,-1.87848699092865,2.16322660446167
1660273550518785500,1.18778564453125,1.7117208242416382,-1.7899115085601807,2.14428973197937
1660273550520785700,1.18978564453125,1.6268105506896973,-1.6310865879058838,2.093587875366211
1660273550522785500,1.19178564453125,1.5535067319869995,-1.496085286140442,2.040442705154419
1660273550524785700,1.19378564453125,1.4777593612670898,-1.366581916809082,1.97385835647583
1660273550526785500,1.19578564453125,1.441718339920044,-1.3158800601959229,1.9420933723449707
1660273550528785700,1.19778564453125,1.3745231628417969,-1.2126438617706299,1.877341628074646
1660273550530785500,1.19978564453125,1.3140474557876587,-1.1149054765701294,1.808924674987793
1660273550532785700,1.20178564453125,1.282893419265747,-1.0727556943893433,1.7820466756820679
1660273550534785800,1.203785888671875,1.2273045778274536,-0.9921215176582336,1.7227927446365356
1660273550536786000,1.205785888671875,1.1790462732315063,-0.930424153804779,1.679421305656433
1660273550538786000,1.2077861328125,1.15583336353302,-0.8943830728530884,1.656819224357605
1660273550540786200,1.2097861328125,1.1161271333694458,-0.8174140453338623,1.6183347702026367
1660273550542783700,1.21178369140625,1.0617601871490479,-0.7031822800636292,1.5835154056549072
1660273550544784000,1.213783935546875,1.0617601871490479,-0.7031822800636292,1.5835154056549072
1660273550546784000,1.215783935546875,1.033049464225769,-0.6402631402015686,1.57313072681427
1660273550548783900,1.217783935546875,1.0189995765686035,-0.5889504551887512,1.5676329135894775
1660273550550784000,1.219783935546875,1.013501763343811,-0.5663484334945679,1.5682437419891357
1660273550552784000,1.221783935546875,1.008004069328308,-0.5223661661148071,1.5712981224060059
1660273550554784000,1.223783935546875,1.0171669721603394,-0.46555566787719727,1.5682437419891357
1660273550556783900,1.225783935546875,1.0257190465927124,-0.42646029591560364,1.562135100364685
1660273550558784000,1.227783935546875,1.0458776950836182,-0.33910655975341797,1.5566374063491821
1660273550560783400,1.229783447265625,1.0678688287734985,-0.23709207773208618,1.5383113622665405
1660273550562783500,1.231783447265625,1.119181513786316,-0.1808924674987793,1.5279266834259033
1660273550564783400,1.233783447265625,1.1741594076156616,-0.08193229883909225,1.5260940790176392
1660273550566783500,1.235783447265625,1.2431871891021729,0.020082194358110428,1.5303701162338257
1660273550568783400,1.237783447265625,1.2816716432571411,0.058566704392433167,1.5407549142837524
1660273550570783500,1.239783447265625,1.3598624467849731,0.12881620228290558,1.5774067640304565
1660273550572783400,1.241783447265625,1.4411075115203857,0.17585283517837524,1.6226108074188232
1660273550574783000,1.243782958984375,1.4899766445159912,0.20456349849700928,1.6409367322921753
1660273550576783000,1.245783203125,1.593823790550232,0.26748260855674744,1.6623170375823975
1660273550578782700,1.24778271484375,1.6463582515716553,0.3059671223163605,1.6641496419906616
1660273550580782800,1.249782958984375,1.7599791288375854,0.3896556794643402,1.6574301719665527
1660273550582782000,1.251781982421875,1.9957730770111084,0.5643631219863892,1.5615242719650269
1660273550584781000,1.253781005859375,1.9957730770111084,0.5643631219863892,1.5615242719650269
1660273550586781000,1.255781005859375,2.0574705600738525,0.6034585237503052,1.5181528329849243
1660273550588780800,1.25778076171875,2.1741456985473633,0.7042512893676758,1.3941471576690674
1660273550590781000,1.259781005859375,2.223015069961548,0.7329619526863098,1.324508547782898
1660273550592781000,1.261781005859375,2.3115904331207275,0.7879397869110107,1.1259773969650269
1660273550594781000,1.263781005859375,2.371455192565918,0.6187301278114319,0.7802276611328125
1660273550596781000,1.265781005859375,2.382450819015503,0.41775545477867126,0.5371032953262329
1660273550598781000,1.267781005859375,2.407496213912964,0.0017562375869601965,-0.007177666760981083
1660273550600780500,1.269780517578125,2.458198070526123,-0.32383492588996887,-0.5245805382728577
1660273550602781200,1.27178125,2.519895553588867,-0.5260313153266907,-0.9466884136199951
1660273550604781300,1.27378125,2.5321128368377686,-0.5663484334945679,-1.1421653032302856
1660273550606781200,1.27578125,2.500347852706909,-0.6176611185073853,-1.476919412612915
1660273550608781000,1.277781005859375,2.441704750061035,-0.6469826698303223,-1.610698938369751
1660273550610781200,1.27978125,2.285323143005371,-0.7984772324562073,-1.6687310934066772
1660273550612781300,1.28178125,2.0721311569213867,-0.7868707776069641,-1.6870571374893188
1660273550614781200,1.28378125,1.9536234140396118,-0.7025713920593262,-1.688889741897583
1660273550616781300,1.28578125,1.6762906312942505,-0.3989713490009308,-1.6711746454238892
1660273550618781200,1.28778125,1.3910164833068848,-0.05077817291021347,-1.5667166709899902
1660273550620781600,1.289781494140625,1.2480740547180176,0.11659890413284302,-1.4732542037963867
1660273550622781000,1.291781005859375,0.26824620366096497,1.7146223783493042,-0.6785185933113098
1660273550624780000,1.293780029296875,0.13141238689422607,1.9968421459197998,-0.5911648273468018
1660273550626779100,1.295779052734375,0.13141238689422607,1.9968421459197998,-0.5911648273468018
1660273550628778500,1.297778564453125,0.13141238689422607,1.9968421459197998,-0.5911648273468018
1660273550630778600,1.299778564453125,0.0012980886967852712,2.285170555114746,-0.5233588218688965
1660273550632779000,1.301779052734375,-0.13003793358802795,2.577775001525879,-0.4586070775985718
1660273550634779600,1.303779541015625,-0.36827537417411804,3.1428253650665283,-0.37491855025291443
1660273550636779500,1.305779541015625,-0.5778021812438965,3.6602282524108887,-0.30711251497268677
1660273550638780000,1.30777978515625,-0.6621015667915344,3.895411252975464,-0.2814561724662781
1660273550640779800,1.30977978515625,-0.7995462417602539,4.301636695861816,-0.24663683772087097
1660273550642780700,1.31178076171875,-0.9113345742225647,4.602182388305664,-0.2142609804868698
1660273550644781600,1.313781494140625,-0.953484296798706,4.711527347564697,-0.20143280923366547
1660273550646781700,1.31578173828125,-1.028620719909668,4.855080604553223,-0.16050484776496887
1660273550648781600,1.317781494140625,-1.077489972114563,4.902728080749512,-0.10797043144702911
1660273550650781400,1.319781494140625,-1.0897072553634644,4.899673938751221,-0.07559457421302795
1660273550652781600,1.321781494140625,-1.0952050685882568,4.847750186920166,-0.010842857882380486
1660273550654781400,1.323781494140625,-1.0738247632980347,4.742681503295898,0.0679587572813034
1660273550656781600,1.325781494140625,-1.0493900775909424,4.666323184967041,0.11010845750570297
1660273550658781400,1.327781494140625,-0.9889144897460938,4.473289966583252,0.20906862616539001
1660273550660782000,1.329781982421875,-0.9192758202552795,4.235663414001465,0.3251330256462097
1660273550662781200,1.33178125,-0.6340017914772034,3.119612455368042,0.8449793457984924
1660273550664780300,1.3337802734375,-0.6340017914772034,3.119612455368042,0.8449793457984924
1660273550666779400,1.335779296875,-0.6340017914772034,3.119612455368042,0.8449793457984924
1660273550668778500,1.337778564453125,-0.6340017914772034,3.119612455368042,0.8449793457984924
1660273550670778600,1.339778564453125,-0.5887977480888367,2.94368314743042,0.927446186542511
1660273550672778800,1.34177880859375,-0.491670161485672,2.5899922847747803,1.1045970916748047
1660273550674778600,1.343778564453125,-0.44280093908309937,2.418950080871582,1.191950798034668
1660273550676778500,1.345778564453125,-0.3340669274330139,2.09458065032959,1.3629931211471558
1660273550678778600,1.347778564453125,-0.21616993844509125,1.7946457862854004,1.5199854373931885
1660273550680778500,1.349778564453125,-0.15202908217906952,1.6535358428955078,1.599397897720337
1660273550682779000,1.35177880859375,-0.02191479131579399,1.3859769105911255,1.753335952758789
1660273550684779800,1.35377978515625,0.12102767825126648,1.1373547315597534,1.903608798980713
1660273550686780700,1.35578076171875,0.19921842217445374,1.0133490562438965,1.9799669981002808
1660273550688781300,1.35778125,0.3635411858558655,0.7659486532211304,2.1277964115142822
1660273550690781200,1.35978125,0.5241987109184265,0.5295438170433044,2.2737932205200195
1660273550692780800,1.36178076171875,0.6005569100379944,0.4061490297317505,2.3440427780151367
1660273550694780700,1.36378076171875,0.7441102266311646,0.16180293262004852,2.4808764457702637
1660273550696780800,1.36578076171875,0.8876635432243347,-0.08559749275445938,2.6085472106933594
1660273550698781000,1.367781005859375,0.9560804963111877,-0.22365303337574005,2.6787967681884766
1660273550700780800,1.36978076171875,1.0849729776382446,-0.4930446147918701,2.810743808746338
1660273550702780200,1.3717802734375,1.4728724956512451,-1.6604081392288208,3.355635404586792
1660273550704779300,1.373779296875,1.51868736743927,-1.7917441129684448,3.425274133682251
1660273550706778400,1.3757783203125,1.5614479780197144,-1.926134467124939,3.4930801391601562
1660273550708777500,1.377777587890625,1.5614479780197144,-1.926134467124939,3.4930801391601562
1660273550710776600,1.379776611328125,1.5614479780197144,-1.926134467124939,3.4930801391601562
1660273550712776200,1.381776123046875,1.5987106561660767,-2.034257650375366,3.562108039855957
1660273550714776300,1.3837763671875,1.6542994976043701,-2.155819892883301,3.6360225677490234
1660273550716776200,1.385776123046875,1.6799558401107788,-2.2474496364593506,3.7087156772613525
1660273550718776300,1.3877763671875,1.7532596588134766,-2.421546220779419,3.8504364490509033
1660273550720776200,1.389776123046875,1.8259525299072266,-2.5437192916870117,3.9799396991729736
1660273550722776300,1.3917763671875,1.8613827228546143,-2.6011404991149902,4.029419898986816
1660273550724776200,1.393776123046875,1.9322431087493896,-2.6353490352630615,4.12899112701416
1660273550726776300,1.3957763671875,2.01409912109375,-2.631072998046875,4.1974077224731445
1660273550728776200,1.397776123046875,2.047085762023926,-2.6096925735473633,4.232227325439453
1660273550730776300,1.3997763671875,2.122833013534546,-2.550438642501831,4.292702674865723
1660273550732776200,1.401776123046875,2.190639019012451,-2.4740805625915527,4.300033092498779
1660273550734776300,1.4037763671875,2.217517137527466,-2.449035167694092,4.21756649017334
1660273550736776400,1.4057763671875,2.20346736907959,-2.422157049179077,3.8095083236694336
1660273550738776600,1.407776611328125,2.1936933994293213,-2.455143690109253,3.425884962081909
1660273550740776700,1.409776611328125,2.2028565406799316,-2.466139316558838,3.2560644149780273
1660273550742774000,1.41177392578125,2.299373149871826,-2.4398722648620605,2.780811309814453
1660273550744774100,1.413774169921875,2.332359790802002,-2.433152675628662,2.634814500808716
1660273550746774300,1.415774169921875,2.362903118133545,-2.419102668762207,2.48209810256958
1660273550748774400,1.4177744140625,2.4404830932617188,-2.4429264068603516,2.154674530029297
1660273550750774500,1.4197744140625,2.4985151290893555,-2.486297845840454,1.8248071670532227
1660273550752775200,1.421775146484375,2.533945322036743,-2.5125651359558105,1.6659822463989258
1660273550754775300,1.423775390625,2.6261861324310303,-2.550438642501831,1.362382173538208
1660273550756775200,1.425775146484375,2.742861270904541,-2.5938100814819336,1.1162035465240479
1660273550758775300,1.427775390625,2.814943313598633,-2.612136125564575,1.0080803632736206
1660273550760775200,1.429775146484375,2.9768226146698,-2.645122766494751,0.8193230032920837
1660273550762774800,1.43177490234375,3.130760669708252,-2.7025442123413086,0.6360634565353394
1660273550764774700,1.433774658203125,3.2132275104522705,-2.7465264797210693,0.5621487498283386
1660273550766774800,1.43577490234375,3.360445976257324,-2.8803060054779053,0.44058656692504883
1660273550768774700,1.437774658203125,3.488116979598999,-3.0880000591278076,0.24083362519741058
1660273550770774800,1.43977490234375,3.5565338134765625,-3.212005853652954,0.14614951610565186
1660273550772775000,1.44177490234375,3.692145824432373,-3.490560293197632,-0.013897184282541275
1660273550774774800,1.44377490234375,3.7972147464752197,-3.78133225440979,-0.11468994617462158
1660273550776775000,1.44577490234375,3.834477424621582,-3.915111780166626,-0.14706580340862274
1660273550778774800,1.44777490234375,3.8894553184509277,-4.168620586395264,-0.17211128771305084
1660273550780775000,1.44977490234375,3.9022834300994873,-4.375093460083008,-0.1696678251028061
1660273550782774000,1.45177392578125,3.8240928649902344,-4.637154579162598,-0.09392052888870239
1660273550784773000,1.453773193359375,3.8240928649902344,-4.637154579162598,-0.09392052888870239
1660273550786773200,1.455773193359375,3.7862191200256348,-4.670141220092773,-0.06582073122262955
1660273550788773000,1.457773193359375,3.7440693378448486,-4.69335412979126,-0.0328340083360672
1660273550790773200,1.459773193359375,3.6597700119018555,-4.710458278656006,0.03130684420466423
1660273550792773000,1.461773193359375,3.5559229850769043,-4.703738689422607,0.10216721147298813
1660273550794773200,1.463773193359375,3.5003342628479004,-4.700073719024658,0.14187344908714294
1660273550796773000,1.465773193359375,3.387934923171997,-4.673806190490723,0.2194533348083496
1660273550798773200,1.467773193359375,3.265151023864746,-4.632267475128174,0.3043636083602905
1660273550800773000,1.469773193359375,3.206507921218872,-4.607222080230713,0.34284812211990356
1660273550802774500,1.4717744140625,3.091665267944336,-4.5546875,0.4314235746860504
1660273550804774400,1.4737744140625,2.9756009578704834,-4.49787712097168,0.5224425196647644
1660273550806774300,1.475774169921875,2.913292646408081,-4.463057994842529,0.5670356750488281
1660273550808774400,1.4777744140625,2.8002827167510986,-4.3885321617126465,0.6507241725921631
1660273550810774300,1.479774169921875,2.6939921379089355,-4.3127851486206055,0.736245334148407
1660273550812774000,1.48177392578125,2.639625072479248,-4.27063512802124,0.775340735912323
1660273550814773800,1.483773681640625,2.514397621154785,-4.056832313537598,0.7673994898796082
1660273550816774000,1.48577392578125,2.404442071914673,-3.8014907836914062,0.7496843934059143
1660273550818774000,1.48777392578125,2.3482422828674316,-3.6713764667510986,0.746630072593689
1660273550820774000,1.48977392578125,2.251725673675537,-3.407482624053955,0.7576256394386292
1660273550822773500,1.4917734375,1.9701167345046997,-2.106339693069458,0.7631233930587769
1660273550824772600,1.493772705078125,1.9701167345046997,-2.106339693069458,0.7631233930587769
1660273550826772000,1.49577197265625,1.9701167345046997,-2.106339693069458,0.7631233930587769
1660273550828771000,1.49777099609375,1.9701167345046997,-2.106339693069458,0.7631233930587769
1660273550830771000,1.49977099609375,1.9340757131576538,-1.869323968887329,0.7576256394386292
1660273550832770800,1.501770751953125,1.8662697076797485,-1.373301386833191,0.746019184589386
1660273550834771000,1.50377099609375,1.8137352466583252,-0.872391939163208,0.745408296585083
1660273550836770800,1.505770751953125,1.7899115085601807,-0.6066655516624451,0.746019184589386
1660273550838771000,1.50777099609375,1.736155390739441,-0.09292787313461304,0.7710646390914917
1660273550840770800,1.509770751953125,1.6946165561676025,0.4147011339664459,0.8150469660758972
1660273550842771700,1.511771728515625,1.6781232357025146,0.6596581339836121,0.8431467413902283
1660273550844772600,1.513772705078125,1.6359734535217285,1.1098657846450806,0.9207266569137573
1660273550846772500,1.5157724609375,1.6011542081832886,1.5008195638656616,1.0178542137145996
1660273550848772600,1.517772705078125,1.592602014541626,1.668196678161621,1.070388674736023
1660273550850772500,1.5197724609375,1.5571718215942383,1.948583722114563,1.1882855892181396
1660273550852772600,1.521772705078125,1.5260177850723267,2.1440606117248535,1.3196216821670532
1660273550854772700,1.523772705078125,1.5095243453979492,2.2075905799865723,1.3910928964614868
1660273550856772600,1.525772705078125,1.4643203020095825,2.273564100265503,1.5395331382751465
1660273550858772700,1.527772705078125,1.4191163778305054,2.3034965991973877,1.6641496419906616
1660273550860772900,1.52977294921875,1.3983469009399414,2.301663875579834,1.7179057598114014
1660273550862771500,1.531771484375,1.1979831457138062,2.034104824066162,1.9573649168014526
1660273550864770600,1.5337705078125,1.1979831457138062,2.034104824066162,1.9573649168014526
1660273550866769700,1.535769775390625,1.1979831457138062,2.034104824066162,1.9573649168014526
1660273550868768800,1.537768798828125,1.1979831457138062,2.034104824066162,1.9573649168014526
1660273550870769000,1.539768798828125,1.1747702360153198,1.979127049446106,1.9591975212097168
1660273550872768800,1.541768798828125,1.1533899307250977,1.920483946800232,1.9628627300262451
1660273550874769000,1.543768798828125,1.1142945289611816,1.7983108758926392,1.9506454467773438
1660273550876768800,1.545768798828125,1.072144865989685,1.6743053197860718,1.924989104270935
1660273550878768600,1.5477685546875,1.0550405979156494,1.6144404411315918,1.9023871421813965
1660273550880768800,1.549768798828125,1.0299952030181885,1.4928783178329468,1.8559613227844238
1660273550882769400,1.551769287109375,0.9976193308830261,1.369483470916748,1.7973182201385498
1660273550884770300,1.553770263671875,0.9872345924377441,1.3041208982467651,1.763109803199768
1660273550886771200,1.555771240234375,0.9695194959640503,1.1660653352737427,1.6989690065383911
1660273550888772000,1.557772216796875,0.9469174742698669,1.0353401899337769,1.628719449043274
1660273550890772000,1.55977197265625,0.9395871162414551,0.9669232964515686,1.5939000844955444
1660273550892772000,1.561772216796875,0.9243154525756836,0.8331438302993774,1.5181528329849243
1660273550894772000,1.56377197265625,0.9047678112983704,0.6871470212936401,1.4448490142822266
1660273550896772000,1.565772216796875,0.8907178640365601,0.6181192994117737,1.4075862169265747
1660273550898772200,1.567772216796875,0.8699484467506409,0.48861584067344666,1.3385584354400635
1660273550900772000,1.569772216796875,0.8455138802528381,0.36216673254966736,1.2701416015625
1660273550902771500,1.571771484375,0.7508297562599182,-0.01290452852845192,1.0771081447601318
1660273550904770600,1.5737705078125,0.7404450178146362,-0.040393464267253876,1.062447428703308
1660273550906769700,1.575769775390625,0.7312820553779602,-0.06666067242622375,1.0471757650375366
1660273550908768800,1.577768798828125,0.7312820553779602,-0.06666067242622375,1.0471757650375366
1660273550910767900,1.579767822265625,0.7312820553779602,-0.06666067242622375,1.0471757650375366
1660273550912767000,1.58176708984375,0.7312820553779602,-0.06666067242622375,1.0471757650375366
1660273550914767000,1.58376708984375,0.720897376537323,-0.08804095536470413,1.0306823253631592
1660273550916767000,1.58576708984375,0.7050148248672485,-0.11919508129358292,1.0044151544570923
1660273550918767000,1.58776708984375,0.6940192580223083,-0.13446670770645142,0.9824240207672119
1660273550920766700,1.5897666015625,0.6891323328018188,-0.14668402075767517,0.9732610583305359
1660273550922777600,1.591777587890625,0.6836345791816711,-0.1509600728750229,0.9531024694442749
1660273550924778500,1.593778564453125,0.681801974773407,-0.15218180418014526,0.9378308653831482
1660273550926779100,1.595779052734375,0.6805802583694458,-0.14668402075767517,0.927446186542511
1660273550928779500,1.597779541015625,0.6787476539611816,-0.14424055814743042,0.9158397316932678
1660273550930779600,1.599779541015625,0.681191086769104,-0.1356884390115738,0.9060658812522888
1660273550932779800,1.60177978515625,0.681801974773407,-0.1308015137910843,0.8993463516235352
1660273550934780200,1.6037802734375,0.6891323328018188,-0.12286027520895004,0.8920159935951233
1660273550936780300,1.6057802734375,0.6952410340309143,-0.11858421564102173,0.8920159935951233
1660273550938780400,1.607780517578125,0.6989061832427979,-0.1198059469461441,0.8926268219947815
1660273550940780300,1.6097802734375,0.7031822800636292,-0.11919508129358292,0.9030115604400635
1660273550942777900,1.61177783203125,0.7031822800636292,-0.1253037303686142,0.9311113357543945
1660273550944777700,1.61377783203125,0.7031822800636292,-0.1253037303686142,0.9311113357543945
1660273550946777900,1.61577783203125,0.7019605040550232,-0.13324497640132904,0.9567676782608032
1660273550948777700,1.61777783203125,0.700738787651062,-0.13935363292694092,0.9879218339920044
1660273550950777900,1.61977783203125,0.7019605040550232,-0.14729487895965576,1.0068585872650146
1660273550952777700,1.62177783203125,0.7068474292755127,-0.15767958760261536,1.0416779518127441
1660273550954777900,1.62377783203125,0.711123526096344,-0.16806429624557495,1.0838276147842407
1660273550956777700,1.62577783203125,0.7166212797164917,-0.16439910233020782,1.1015427112579346
1660273550958777900,1.62777783203125,0.7257842421531677,-0.15401439368724823,1.1388055086135864
1660273550960777700,1.62977783203125,0.7380015850067139,-0.12163854390382767,1.1785117387771606
1660273550962777000,1.631777099609375,0.7447211146354675,-0.10025826096534729,1.1992812156677246
1660273550964777000,1.63377685546875,0.7593818306922913,-0.044058654457330704,1.2341004610061646
1660273550966777000,1.635777099609375,0.7709882855415344,0.0316886343061924,1.2609785795211792
1660273550968777000,1.63777685546875,0.7777078151702881,0.07872525602579117,1.2707524299621582
1660273550970777000,1.639777099609375,0.7887033820152283,0.18196149170398712,1.2860240936279297
1660273550972777000,1.64177685546875,0.7935903072357178,0.3059671223163605,1.2903001308441162
1660273550974777000,1.643777099609375,0.7917577028274536,0.3743840456008911,1.285413146018982
1660273550976777200,1.645777099609375,0.7862599492073059,0.5277112126350403,1.2762502431869507
1660273550978777000,1.647777099609375,0.7703774571418762,0.6871470212936401,1.2524265050888062
1660273550980777700,1.64977783203125,0.7587710022926331,0.7714464664459229,1.2389874458312988
1660273550982776800,1.65177685546875,0.691575825214386,1.1263591051101685,1.1552989482879639
1660273550984776000,1.65377587890625,0.691575825214386,1.1263591051101685,1.1552989482879639
1660273550986776000,1.655776123046875,0.6665303111076355,1.21737802028656,1.126588225364685
1660273550988776000,1.65777587890625,0.6176611185073853,1.400026798248291,1.070388674736023
1660273550990775800,1.65977587890625,0.5639050006866455,1.5747342109680176,1.0062477588653564
1660273550992776000,1.66177587890625,0.5376377701759338,1.6590336561203003,0.9769262671470642
1660273550994775800,1.66377587890625,0.48082730174064636,1.8190803527832031,0.9103419184684753
1660273550996776000,1.66577587890625,0.42707115411758423,1.951027274131775,0.8462010622024536
1660273550998775800,1.66777587890625,0.40080395340919495,2.0047833919525146,0.8211556077003479
1660273551000775700,1.669775634765625,0.36048686504364014,2.081752300262451,0.7759515643119812
1660273551002776600,1.671776611328125,0.32383492588996887,2.1275672912597656,0.7405213713645935
1660273551004776700,1.673776611328125,0.31039589643478394,2.1440606117248535,0.7221954464912415
1660273551006776800,1.67577685546875,0.2920699417591095,2.1660518646240234,0.6965391039848328
1660273551008776700,1.677776611328125,0.2822960913181305,2.176436424255371,0.6745479702949524
1660273551010776800,1.67977685546875,0.2816852331161499,2.1721603870391846,0.6678284406661987
1660273551012776400,1.6817763671875,0.28473955392837524,2.1526126861572266,0.6629415154457092
1660273551014776600,1.683776611328125,0.29512426257133484,2.1129064559936523,0.6635523438453674
1660273551016776700,1.685776611328125,0.30062204599380493,2.081752300262451,0.6690501570701599
1660273551018776600,1.687776611328125,0.32078060507774353,2.019444227218628,0.6806566119194031
1660273551020776700,1.689776611328125,0.33910655975341797,1.941864252090454,0.6989825367927551
1660273551022776300,1.6917763671875,0.42523857951164246,1.6449837684631348,0.77472984790802
1660273551024775400,1.693775390625,0.44112107157707214,1.5893950462341309,0.7863363027572632
1660273551026774500,1.6957744140625,0.44112107157707214,1.5893950462341309,0.7863363027572632
1660273551028773600,1.697773681640625,0.44112107157707214,1.5893950462341309,0.7863363027572632
1660273551030773500,1.6997734375,0.45700356364250183,1.5295301675796509,0.7997753024101257
1660273551032773600,1.701773681640625,0.4899902939796448,1.4177418947219849,0.8248208165168762
1660273551034773500,1.7037734375,0.5015967488288879,1.362153172492981,0.8339837789535522
1660273551036773600,1.705773681640625,0.5278639197349548,1.2570843696594238,0.8529205918312073
1660273551038773500,1.7077734375,0.5449681282043457,1.1617892980575562,0.8681922554969788
1660273551040772900,1.70977294921875,0.549244225025177,1.1171962022781372,0.8712465763092041
1660273551042773800,1.711773681640625,0.559018075466156,1.037172794342041,0.8804095387458801
1660273551044774700,1.713774658203125,0.55779629945755,0.9650907516479492,0.8865181803703308
1660273551046774500,1.7157744140625,0.5565745830535889,0.9333257079124451,0.887739896774292
1660273551048774700,1.717774658203125,0.5437464118003845,0.8820130825042725,0.8901833891868591
1660273551050774500,1.7197744140625,0.5229769945144653,0.847804605960846,0.8901833891868591
1660273551052774700,1.721774658203125,0.5119814276695251,0.8416959643363953,0.8865181803703308
1660273551054774800,1.72377490234375,0.4832707643508911,0.847804605960846,0.8749117255210876
1660273551056774700,1.725774658203125,0.4472297132015228,0.8966737985610962,0.8620835542678833
1660273551058774800,1.72777490234375,0.4246276915073395,0.9388235211372375,0.8535314798355103
1660273551060775000,1.72977490234375,0.3763693571090698,1.0707703828811646,0.8217664957046509
1660273551062774000,1.73177392578125,0.216322660446167,1.606499195098877,0.8804095387458801
1660273551064773000,1.733773193359375,0.216322660446167,1.606499195098877,0.8804095387458801
1660273551066772200,1.735772216796875,0.216322660446167,1.606499195098877,0.8804095387458801
1660273551068771300,1.737771240234375,0.2114357352256775,1.656590223312378,0.9115636348724365
1660273551070771200,1.739771240234375,0.2114357352256775,1.656590223312378,0.9115636348724365
1660273551072771300,1.741771240234375,0.21815524995326996,1.7274506092071533,0.9775370955467224
1660273551074771500,1.743771484375,0.23892466723918915,1.76960027217865,1.049619197845459
1660273551076771300,1.745771240234375,0.2511419653892517,1.7848719358444214,1.0826059579849243
1660273551078771500,1.747771484375,0.27374398708343506,1.8117499351501465,1.1491901874542236
1660273551080771300,1.749771240234375,0.2920699417591095,1.8410714864730835,1.21027672290802
1660273551082772200,1.751772216796875,0.3073415756225586,1.8526779413223267,1.2383766174316406
1660273551084773000,1.753773193359375,0.3323870599269867,1.8728364706039429,1.2890783548355103
1660273551086774000,1.75577392578125,0.3574325144290924,1.8771125078201294,1.334282398223877
1660273551088775000,1.75777490234375,0.36903896927833557,1.871614694595337,1.355051875114441
1660273551090775000,1.759775146484375,0.38736492395401,1.8538997173309326,1.3813190460205078
1660273551092775200,1.761775146484375,0.3977496325969696,1.825799822807312,1.392925500869751
1660273551094775000,1.763775146484375,0.40080395340919495,1.8093065023422241,1.3947581052780151
1660273551096775200,1.765775146484375,0.40019309520721436,1.7653242349624634,1.3837624788284302
1660273551098775000,1.767775146484375,0.38919752836227417,1.7085137367248535,1.3642147779464722
1660273551100775200,1.769775146484375,0.3788128197193146,1.67491614818573,1.347110629081726
1660273551102774300,1.771774169921875,0.2364812046289444,1.2974014282226562,1.0630582571029663
1660273551104773400,1.7737734375,0.2364812046289444,1.2974014282226562,1.0630582571029663
1660273551106772500,1.7757724609375,0.21693351864814758,1.2534191608428955,1.0154107809066772
1660273551108771600,1.777771484375,0.21693351864814758,1.2534191608428955,1.0154107809066772
1660273551110770700,1.779770751953125,0.21693351864814758,1.2534191608428955,1.0154107809066772
1660273551112770600,1.7817705078125,0.1955532431602478,1.210047721862793,0.9708175659179688
1660273551114770400,1.7837705078125,0.1753946840763092,1.1660653352737427,0.926835298538208
1660273551116770600,1.7857705078125,0.15401439368724823,1.1226940155029297,0.877966046333313
1660273551118770400,1.7877705078125,0.10942123830318451,1.0426706075668335,0.784503698348999
1660273551120770600,1.7897705078125,0.06910412758588791,0.9687559008598328,0.6885978579521179
1660273551122770400,1.7917705078125,0.04772384837269783,0.933936595916748,0.6415612101554871
1660273551124770600,1.7937705078125,0.0012980886967852712,0.8722392320632935,0.5511531829833984
1660273551126770400,1.7957705078125,-0.035964690148830414,0.8154287338256836,0.46563202142715454
1660273551128770800,1.797770751953125,-0.05490151420235634,0.7916049957275391,0.42409318685531616
1660273551130771000,1.79977099609375,-0.08361218124628067,0.7488444447517395,0.3507893681526184
1660273551132771300,1.801771240234375,-0.1025490015745163,0.7097490429878235,0.2860376536846161
1660273551134771500,1.803771484375,-0.1074359267950058,0.6975317597389221,0.25732699036598206
1660273551136771600,1.805771484375,-0.1172097697854042,0.6706537008285522,0.2054034322500229
1660273551138771700,1.807771728515625,-0.11659890413284302,0.6553820371627808,0.16630806028842926
1660273551140771800,1.809771728515625,-0.11293371021747589,0.6504951119422913,0.15286903083324432
1660273551142769200,1.81176904296875,-0.10010553896427155,0.6468299627304077,0.11743884533643723
1660273551144769300,1.813769287109375,-0.09399688988924026,0.6498842835426331,0.10766500234603882
1660273551146769200,1.81576904296875,-0.08910996466875076,0.6541603207588196,0.1033889427781105
1660273551148769300,1.817769287109375,-0.07994698733091354,0.6614906787872314,0.09728029370307922
1660273551150769200,1.81976904296875,-0.07750352472066879,0.6724863052368164,0.09544769674539566
1660273551152770300,1.821770263671875,-0.0817795842885971,0.6779840588569641,0.098502017557621
1660273551154770200,1.823770263671875,-0.08483391255140305,0.6908122301101685,0.10094548016786575
1660273551156770300,1.825770263671875,-0.09155342727899551,0.7042512893676758,0.11071932315826416
1660273551158770200,1.827770263671875,-0.09827294945716858,0.7103599309921265,0.11499538272619247
1660273551160770300,1.829770263671875,-0.10987938940525055,0.7207446098327637,0.12599095702171326
1660273551162770200,1.831770263671875,-0.12454015016555786,0.7299076318740845,0.13759739696979523
1660273551164770300,1.833770263671875,-0.13003793358802795,0.7299076318740845,0.14309518039226532
1660273551166770200,1.835770263671875,-0.1428661048412323,0.7305184602737427,0.14737124741077423
1660273551168770300,1.837770263671875,-0.14958561956882477,0.7195228934288025,0.14248432219028473
1660273551170770200,1.839770263671875,-0.15202908217906952,0.7109707593917847,0.1333213448524475
1660273551172770300,1.841770263671875,-0.15386168658733368,0.6865361928939819,0.10399980843067169
1660273551174770200,1.843770263671875,-0.15080735087394714,0.6480516791343689,0.05268712714314461
1660273551176770300,1.845770263671875,-0.14469870924949646,0.6278930902481079,0.017867809161543846
1660273551178770400,1.8477705078125,-0.1330922693014145,0.5741369724273682,-0.07131851464509964
1660273551180770300,1.849770263671875,-0.11659890413284302,0.5081635117530823,-0.19104810059070587
1660273551182769700,1.851769775390625,-0.06284276396036148,0.35178202390670776,-0.5123631954193115
1660273551184768800,1.853768798828125,-0.06284276396036148,0.35178202390670776,-0.5123631954193115
1660273551186768600,1.8557685546875,-0.050014592707157135,0.3090214431285858,-0.6058256030082703
1660273551188768800,1.857768798828125,-0.035353824496269226,0.26015225052833557,-0.7047857642173767
1660273551190768600,1.8597685546875,-0.0011453722836449742,0.16180293262004852,-0.9118691086769104
1660273551192768800,1.861768798828125,0.02756529487669468,0.05062545835971832,-1.1281154155731201
1660273551194768600,1.8637685546875,0.041004329919815063,-0.006795875728130341,-1.2374602556228638
1660273551196768500,1.8657685546875,0.06543894112110138,-0.1253037303686142,-1.4567608833312988
1660273551198768600,1.8677685546875,0.09048441797494888,-0.246865913271904,-1.6742289066314697
1660273551200768500,1.8697685546875,0.09903652966022491,-0.3079524338245392,-1.782352089881897
1660273551202769400,1.871769287109375,0.11064296960830688,-0.41546472907066345,-1.9802724123001099
1660273551204769300,1.873769287109375,0.11430815607309341,-0.5028184652328491,-2.1653645038604736
1660273551206769400,1.875769287109375,0.11247556656599045,-0.5419138073921204,-2.2514965534210205
1660273551208769500,1.87776953125,0.10147999227046967,-0.6097198724746704,-2.414597511291504
1660273551210769400,1.879769287109375,0.08681922405958176,-0.662865161895752,-2.57342267036438
1660273551212769000,1.88176904296875,0.07338018715381622,-0.6860780119895935,-2.64611554145813
1660273551214769200,1.88376904296875,0.05322163552045822,-0.7178429961204529,-2.7896687984466553
1660273551216769000,1.88576904296875,0.017180584371089935,-0.7349472641944885,-2.923448324203491
1660273551218769200,1.88776904296875,-0.004199698567390442,-0.7373906970024109,-2.984534978866577
1660273551220769000,1.88976904296875,-0.053068917244672775,-0.7276168465614319,-3.106707811355591
1660273551222768400,1.891768310546875,-0.26259568333625793,-0.5596289038658142,-3.5159876346588135
1660273551224767500,1.893767578125,-0.26259568333625793,-0.5596289038658142,-3.5159876346588135
1660273551226766600,1.8957666015625,-0.26259568333625793,-0.5596289038658142,-3.5159876346588135
1660273551228765700,1.897765625,-0.26259568333625793,-0.5596289038658142,-3.5159876346588135
1660273551230765600,1.899765625,-0.2998584806919098,-0.5272530913352966,-3.5715763568878174
1660273551232765700,1.901765625,-0.3743840456008911,-0.4637230932712555,-3.673590898513794
1660273551234765600,1.903765625,-0.4464661478996277,-0.397138774394989,-3.7676641941070557
1660273551236765700,1.905765625,-0.48433977365493774,-0.36415204405784607,-3.810424566268921
1660273551238765600,1.907765625,-0.5509241223335266,-0.29878947138786316,-3.8812849521636963
1660273551240765400,1.909765380859375,-0.61139976978302,-0.23525947332382202,-3.9350411891937256
1660273551242766800,1.911766845703125,-0.6333909034729004,-0.20471622049808502,-3.95886492729187
1660273551244767700,1.913767822265625,-0.6761514544487,-0.1356884390115738,-3.9900190830230713
1660273551246767600,1.915767578125,-0.7091382145881653,-0.064217209815979,-4.0046796798706055
1660273551248767500,1.917767578125,-0.7189120650291443,-0.025732697919011116,-4.0071234703063965
1660273551250767600,1.919767578125,-0.7366271018981934,0.0567341111600399,-3.9961276054382324
1660273551252767500,1.921767578125,-0.7427358031272888,0.13370312750339508,-3.963751792907715
1660273551254767600,1.923767578125,-0.7415140271186829,0.17218764126300812,-3.9399280548095703
1660273551256767500,1.925767578125,-0.7415140271186829,0.2436588704586029,-3.883728504180908
1660273551258767600,1.927767578125,-0.7384597063064575,0.31818443536758423,-3.813478946685791
1660273551260767500,1.929767578125,-0.7354053854942322,0.36216673254966736,-3.7731618881225586
1660273551262766800,1.931766845703125,-0.7042512893676758,0.8545241355895996,-3.42252516746521
1660273551264766000,1.933765869140625,-0.7042512893676758,0.8545241355895996,-3.42252516746521
1660273551266765000,1.93576513671875,-0.7042512893676758,0.8545241355895996,-3.42252516746521
1660273551268764200,1.93776416015625,-0.7042512893676758,0.8545241355895996,-3.42252516746521
1660273551270764000,1.939763916015625,-0.6926448345184326,0.94432133436203,-3.374877691268921
1660273551272763600,1.941763671875,-0.6785949468612671,1.0463358163833618,-3.322343349456787
1660273551274763800,1.943763671875,-0.6449973583221436,1.2802971601486206,-3.2209396362304688
1660273551276763600,1.945763671875,-0.610788881778717,1.5527430772781372,-3.1134274005889893
1660273551278763800,1.947763671875,-0.591852068901062,1.7072919607162476,-3.0602822303771973
1660273551280763600,1.949763671875,-0.5552001595497131,2.028607130050659,-2.953380823135376
1660273551282764500,1.9517646484375,-0.5246568918228149,2.3645830154418945,-2.8593075275421143
1660273551284765400,1.953765380859375,-0.5148830413818359,2.53012752532959,-2.814103364944458
1660273551286766300,1.955766357421875,-0.49900054931640625,2.864881753921509,-2.7267496585845947
1660273551288767200,1.957767333984375,-0.49838969111442566,3.1935272216796875,-2.6473371982574463
1660273551290768000,1.959767822265625,-0.5020548701286316,3.360293388366699,-2.6039657592773438
1660273551292768000,1.96176806640625,-0.5130504369735718,3.6993236541748047,-2.5141687393188477
1660273551294767900,1.963767822265625,-0.5380959510803223,4.043851375579834,-2.4164302349090576
1660273551296768000,1.96576806640625,-0.5582544803619385,4.213672161102295,-2.363895893096924
1660273551298768000,1.967767822265625,-0.6040693521499634,4.547815322875977,-2.249664068222046
1660273551300768000,1.96976806640625,-0.6669884920120239,4.853858947753906,-2.1262691020965576
1660273551302766600,1.9717666015625,-0.9565386176109314,4.97603178024292,-1.7646369934082031
1660273551304765700,1.973765625,-0.9858601689338684,4.747568130493164,-1.7719674110412598
1660273551306764800,1.975764892578125,-1.0182360410690308,4.475733280181885,-1.7939585447311401
1660273551308764200,1.97776416015625,-1.0182360410690308,4.475733280181885,-1.7939585447311401
1660273551310763300,1.97976318359375,-1.0182360410690308,4.475733280181885,-1.7939585447311401
1660273551312763100,1.98176318359375,-1.0182360410690308,4.475733280181885,-1.7939585447311401
1660273551314763300,1.98376318359375,-1.0493900775909424,4.167246341705322,-1.8281669616699219
1660273551316763100,1.98576318359375,-1.1013137102127075,3.4763576984405518,-1.9142990112304688
1660273551318763300,1.98776318359375,-1.133689522743225,2.756147623062134,-2.02425479888916
1660273551320763100,1.98976318359375,-1.14468514919281,2.4146740436553955,-2.0841195583343506
1660273551322763000,1.991762939453125,-1.143463373184204,1.7885370254516602,-2.1952970027923584
1660273551324763100,1.99376318359375,-1.1098657846450806,1.2638038396835327,-2.2985332012176514
1660273551326763000,1.995762939453125,-1.0835986137390137,1.0335075855255127,-2.3431262969970703
1660273551328763100,1.99776318359375,-1.0017426013946533,0.6437755823135376,-2.4237606525421143
1660273551330763300,1.99976318359375,-0.9003390073776245,0.3383429944515228,-2.47873854637146
1660273551332763600,2.001763671875,-0.8435285687446594,0.22288945317268372,-2.498286247253418
1660273551334763800,2.003763671875,-0.7268533110618591,0.07017314434051514,-2.520888090133667
1660273551336764000,2.005763916015625,-0.61139976978302,0.018249599263072014,-2.523942470550537
1660273551338764000,2.007763916015625,-0.5564218759536743,0.026801712810993195,-2.520277261734009
1660273551340764200,2.00976416015625,-0.45318564772605896,0.10499246418476105,-2.506838321685791
1660273551342761700,2.01176171875,-0.34322991967201233,0.329790860414505,-2.4530820846557617
1660273551344761600,2.01376171875,-0.34322991967201233,0.329790860414505,-2.4530820846557617
1660273551346761700,2.01576171875,-0.27603474259376526,0.5576435923576355,-2.403602123260498
1660273551348761000,2.017760986328125,-0.20212003588676453,0.8441393971443176,-2.339461088180542
1660273551350761200,2.01976123046875,-0.16058120131492615,1.000520944595337,-2.3009767532348633
1660273551352761000,2.021760986328125,-0.06406449526548386,1.3389402627944946,-2.213623046875
1660273551354761200,2.02376123046875,0.037339139729738235,1.685911774635315,-2.1116085052490234
1660273551356761000,2.025760986328125,0.08865182101726532,1.8593974113464355,-2.0566306114196777
1660273551358761200,2.02776123046875,0.1961641013622284,2.220418691635132,-1.9405661821365356
1660273551360761000,2.029760986328125,0.2975677251815796,2.572888135910034,-1.8257235288619995
1660273551362761200,2.03176123046875,0.34460434317588806,2.739654302597046,-1.7707456350326538
1660273551364761000,2.033760986328125,0.42584943771362305,3.024928331375122,-1.665065884590149
1660273551366761200,2.03576123046875,0.477772980928421,3.228346347808838,-1.5575536489486694
1660273551368761300,2.03776123046875,0.4832707643508911,3.2888221740722656,-1.5019649267196655
1660273551370762000,2.039761962890625,0.4734969139099121,3.359682559967041,-1.3968961238861084
1660273551372761300,2.04176123046875,0.44173192977905273,3.3242523670196533,-1.2667818069458008
1660273551374761500,2.043761474609375,0.42096251249313354,3.2552244663238525,-1.1873693466186523
1660273551376762400,2.045762451171875,0.3672063648700714,3.0237066745758057,-1.0126618146896362
1660273551378762500,2.047762451171875,0.29390254616737366,2.7054457664489746,-0.831845760345459
1660273551380762400,2.049762451171875,0.2419789880514145,2.5313491821289062,-0.7481572031974792
1660273551382761500,2.051761474609375,0.00618501054123044,1.6779705286026,-0.4317290186882019
1660273551384760600,2.053760498046875,0.00618501054123044,1.6779705286026,-0.4317290186882019
1660273551386760200,2.05576025390625,-0.061621032655239105,1.4403438568115234,-0.36331209540367126
1660273551388760300,2.05776025390625,-0.2082286924123764,0.9406561255455017,-0.2454151064157486
1660273551390760200,2.05976025390625,-0.36644279956817627,0.4501313269138336,-0.16294831037521362
1660273551392760300,2.06176025390625,-0.4415792226791382,0.23693935573101044,-0.14095716178417206
1660273551394760200,2.06376025390625,-0.5979607105255127,-0.14424055814743042,-0.10919216275215149
1660273551396760000,2.065760009765625,-0.7476227283477783,-0.4631122052669525,-0.11041389405727386
1660273551398760200,2.06776025390625,-0.8166504502296448,-0.5944482684135437,-0.12140946835279465
1660273551400760000,2.069760009765625,-0.9418778419494629,-0.8033641576766968,-0.15622878074645996
1660273551402761000,2.071760986328125,-1.0573313236236572,-0.9145416021347046,-0.21609358489513397
1660273551404760800,2.0737607421875,-1.1086440086364746,-0.9365327954292297,-0.25641068816185
1660273551406761000,2.075760986328125,-1.2045499086380005,-0.9371436238288879,-0.3455969989299774
1660273551408761000,2.077760986328125,-1.2809081077575684,-0.872391939163208,-0.44944411516189575
1660273551410761200,2.07976123046875,-1.3059535026550293,-0.8204683661460876,-0.5032002329826355
1660273551412761000,2.081760986328125,-1.3493249416351318,-0.690964937210083,-0.6088799238204956
1660273551414761200,2.08376123046875,-1.3688726425170898,-0.548633337020874,-0.7157813310623169
1660273551416761300,2.08576123046875,-1.3725378513336182,-0.47594037652015686,-0.7640396952629089
1660273551418761200,2.08776123046875,-1.3725378513336182,-0.33544138073921204,-0.8617781400680542
1660273551420761300,2.08976123046875,-1.359709620475769,-0.2114357352256775,-0.9485210180282593
1660273551422760400,2.091760498046875,-1.2723559141159058,-0.07399105280637741,-1.2111930847167969
1660273551424759600,2.093759521484375,-1.2723559141159058,-0.07399105280637741,-1.2111930847167969
1660273551426758700,2.095758544921875,-1.2723559141159058,-0.07399105280637741,-1.2111930847167969
1660273551428758000,2.097758056640625,-1.2723559141159058,-0.07399105280637741,-1.2111930847167969
1660273551430757600,2.099757568359375,-1.2558625936508179,-0.09598220139741898,-1.2429580688476562
1660273551432758000,2.101758056640625,-1.2179889678955078,-0.15951219201087952,-1.3083206415176392
1660273551434758000,2.1037578125,-1.1984412670135498,-0.20227275788784027,-1.3364204168319702
1660273551436757000,2.105757080078125,-1.151404619216919,-0.2981785833835602,-1.3889548778533936
1660273551438757000,2.107757080078125,-1.102535367012024,-0.4081343412399292,-1.442100167274475
1660273551440757200,2.10975732421875,-1.0738247632980347,-0.4643339514732361,-1.4677565097808838
1660273551442758100,2.111758056640625,-1.0109056234359741,-0.5803983211517334,-1.514793038368225
1660273551444759000,2.113759033203125,-0.943710446357727,-0.6934084296226501,-1.5654948949813843
1660273551446759400,2.115759521484375,-0.905836820602417,-0.7465536594390869,-1.5887078046798706
1660273551448759300,2.11775927734375,-0.8319221138954163,-0.8497899174690247,-1.6314682960510254
1660273551450759400,2.119759521484375,-0.7464009523391724,-0.9438631534576416,-1.677894115447998
1660273551452759600,2.121759521484375,-0.7024186849594116,-0.9841802716255188,-1.6980526447296143
1660273551454759400,2.123759521484375,-0.6101779937744141,-1.0550405979156494,-1.7414240837097168
1660273551456759600,2.125759521484375,-0.514272153377533,-1.1155163049697876,-1.7792977094650269
1660273551458759400,2.127759521484375,-0.4647921025753021,-1.137507438659668,-1.7976237535476685
1660273551460759000,2.129759033203125,-0.36216673254966736,-1.1833223104476929,-1.8318321704864502
1660273551462758100,2.131758056640625,-0.0316886343061924,-1.2468522787094116,-1.934457540512085
1660273551464757200,2.13375732421875,-0.0316886343061924,-1.2468522787094116,-1.934457540512085
1660273551466756400,2.13575634765625,-0.0316886343061924,-1.2468522787094116,-1.934457540512085
1660273551468755500,2.13775537109375,-0.0316886343061924,-1.2468522787094116,-1.934457540512085
1660273551470755300,2.13975537109375,0.0031306843739002943,-1.2450196743011475,-1.9393444061279297
1660273551472755500,2.14175537109375,0.07093672454357147,-1.2291371822357178,-1.9564486742019653
1660273551474755600,2.143755615234375,0.12652546167373657,-1.2095896005630493,-1.9631681442260742
1660273551476755500,2.14575537109375,0.15462526679039001,-1.196150541305542,-1.9656116962432861
1660273551478755300,2.14775537109375,0.19982929527759552,-1.1735484600067139,-1.9607247114181519
1660273551480755500,2.14975537109375,0.2413681298494339,-1.1466704607009888,-1.9533942937850952
1660273551482756400,2.15175634765625,0.25908321142196655,-1.1338422298431396,-1.9497292041778564
1660273551484757000,2.153757080078125,0.29940032958984375,-1.1045206785202026,-1.9307923316955566
1660273551486758000,2.1557578125,0.3378848433494568,-1.073366641998291,-1.913688063621521
1660273551488758500,2.157758544921875,0.35559993982315063,-1.0580949783325195,-1.9008599519729614
1660273551490758700,2.159758544921875,0.39591702818870544,-1.0367146730422974,-1.8697057962417603
1660273551492758800,2.1617587890625,0.43073636293411255,-1.0141127109527588,-1.8379408121109009
1660273551494758700,2.163758544921875,0.44539710879325867,-1.0031170845031738,-1.8208365440368652
1660273551496758800,2.1657587890625,0.47716212272644043,-0.9963975548744202,-1.782352089881897
1660273551498758100,2.167758056640625,0.5089271068572998,-1.0067822933197021,-1.7395914793014526
1660273551500758000,2.169758056640625,0.5217552781105042,-1.0189995765686035,-1.7163785696029663
1660273551502757000,2.171757080078125,0.643317461013794,-1.2841150760650635,-1.432326316833496
1660273551504756200,2.173756103515625,0.643317461013794,-1.2841150760650635,-1.432326316833496
1660273551506755300,2.17575537109375,0.6561456322669983,-1.3225996494293213,-1.39017653465271
1660273551508754400,2.17775439453125,0.6561456322669983,-1.3225996494293213,-1.39017653465271
1660273551510753500,2.17975341796875,0.6695846915245056,-1.3623058795928955,-1.3486377000808716
1660273551512752600,2.181752685546875,0.6695846915245056,-1.3623058795928955,-1.3486377000808716
1660273551514752800,2.183752685546875,0.6842454075813293,-1.3971251249313354,-1.305266261100769
1660273551516752400,2.18575244140625,0.7092909216880798,-1.469818115234375,-1.2124147415161133
1660273551518752300,2.187752197265625,0.72028648853302,-1.5009722709655762,-1.161102056503296
1660273551520753000,2.1897529296875,0.7434993386268616,-1.5571718215942383,-1.0627528429031372
1660273551522753000,2.1917529296875,0.7630470395088196,-1.6072628498077393,-0.95462965965271
1660273551524770800,2.193770751953125,0.7715991735458374,-1.6255887746810913,-0.8996517658233643
1660273551526771000,2.19577099609375,0.7795404195785522,-1.6494125127792358,-0.7854200005531311
1660273551528770800,2.197770751953125,0.7862599492073059,-1.6591863632202148,-0.669355571269989
1660273551530771000,2.19977099609375,0.7887033820152283,-1.6573537588119507,-0.6094908118247986
1660273551532770800,2.201770751953125,0.7874816656112671,-1.640249490737915,-0.48915034532546997
1660273551534770700,2.203770751953125,0.7758752107620239,-1.6072628498077393,-0.36819902062416077
1660273551536770600,2.2057705078125,0.7679339647293091,-1.585882544517517,-0.3065016269683838
1660273551538770400,2.2077705078125,0.7428885102272034,-1.5315154790878296,-0.18249599635601044
1660273551540770300,2.209770263671875,0.7092909216880798,-1.4594334363937378,-0.05665775015950203
1660273551542767600,2.211767578125,0.6640868782997131,-1.3800209760665894,0.06673702597618103
1660273551544767500,2.213767578125,0.6378196477890015,-1.3378711938858032,0.1290452778339386
1660273551546767400,2.215767333984375,0.5810092091560364,-1.25357186794281,0.2554943859577179
1660273551548766500,2.217766357421875,0.5547419786453247,-1.2108112573623657,0.31902438402175903
1660273551550766300,2.219766357421875,0.5028184652328491,-1.128955364227295,0.4460843503475189
1660273551552766500,2.221766357421875,0.46127963066101074,-1.0532079935073853,0.5731443166732788
1660273551554766300,2.223766357421875,0.44539710879325867,-1.0208321809768677,0.6397286057472229
1660273551556766200,2.22576611328125,0.41607558727264404,-0.9615782499313354,0.7692320346832275
1660273551558766000,2.22776611328125,0.39469531178474426,-0.9188176989555359,0.8999572396278381
1660273551560766200,2.22976611328125,0.38492146134376526,-0.9041569232940674,0.9695958495140076
1660273551562766000,2.23176611328125,0.36903896927833557,-0.8962156772613525,1.1064296960830688
1660273551564766000,2.233765869140625,0.3562107980251312,-0.9047678112983704,1.2450960874557495
1660273551566766000,2.23576611328125,0.3525456190109253,-0.9194285273551941,1.3190107345581055
1660273551568766000,2.237765869140625,0.3415500223636627,-0.9652434587478638,1.4625641107559204
1660273551570766000,2.23976611328125,0.33483052253723145,-1.0336604118347168,1.6140587329864502
1660273551572766500,2.241766357421875,0.32994359731674194,-1.0758100748062134,1.695914626121521
1660273551574766600,2.2437666015625,0.3262783885002136,-1.1717158555984497,1.857793927192688
1660273551576766500,2.245766357421875,0.32078060507774353,-1.2822824716567993,2.021505832672119
1660273551578766000,2.24776611328125,0.32016974687576294,-1.3433690071105957,2.1094703674316406
1660273551580766000,2.249765869140625,0.30856332182884216,-1.4685964584350586,2.289064884185791
1660273551582765000,2.25176513671875,0.2816852331161499,-1.7312684059143066,2.663525104522705
1660273551584763600,2.253763671875,0.2816852331161499,-1.7312684059143066,2.663525104522705
1660273551586763500,2.255763427734375,0.27863091230392456,-1.7868572473526,2.7569875717163086
1660273551588763600,2.257763671875,0.2621375620365143,-1.8931477069854736,2.9487993717193604
1660273551590763500,2.259763427734375,0.2554180324077606,-1.9414061307907104,3.0416507720947266
1660273551592763600,2.261763671875,0.2419789880514145,-2.025094747543335,3.2255213260650635
1660273551594763500,2.263763427734375,0.2212095707654953,-2.0867919921875,3.399617910385132
1660273551596763600,2.265763671875,0.2108248621225357,-2.1112265586853027,3.4796411991119385
1660273551598763500,2.267763427734375,0.19677497446537018,-2.134439468383789,3.6280813217163086
1660273551600763600,2.269763671875,0.1802816092967987,-2.119778871536255,3.7484219074249268
1660273551602764500,2.2717646484375,0.1705077588558197,-2.0941224098205566,3.793625831604004
1660273551604764700,2.2737646484375,0.14851661026477814,-2.01409912109375,3.85471248626709
1660273551606764500,2.2757646484375,0.11736248433589935,-1.9016999006271362,3.8626537322998047
1660273551608765000,2.277764892578125,0.0898735523223877,-1.8271743059158325,3.844327688217163
1660273551610765000,2.27976513671875,0.04466952010989189,-1.6207019090652466,3.769191265106201
1660273551612765200,2.28176513671875,-0.0035888333804905415,-1.3586406707763672,3.634190082550049
1660273551614765000,2.28376513671875,-0.03107776865363121,-1.2004265785217285,3.5413384437561035
1660273551616765200,2.28576513671875,-0.07750352472066879,-0.85284423828125,3.3043227195739746
1660273551618766000,2.28776611328125,-0.12331841886043549,-0.45150578022003174,2.9775099754333496
1660273551620766000,2.289765869140625,-0.1422552466392517,-0.23403774201869965,2.789363384246826
1660273551622765000,2.29176513671875,-0.21678079664707184,1.264414668083191,1.0746647119522095
1660273551624764200,2.29376416015625,-0.21678079664707184,1.264414668083191,1.0746647119522095
1660273551626763300,2.29576318359375,-0.22472205758094788,1.4140766859054565,0.8162686824798584
1660273551628762400,2.297762451171875,-0.22472205758094788,1.4140766859054565,0.8162686824798584
1660273551630762500,2.299762451171875,-0.22960896790027618,1.5527430772781372,0.5480988621711731
1660273551632761600,2.30176171875,-0.24060454964637756,1.646816372871399,0.28909197449684143
1660273551634761700,2.30376171875,-0.25221097469329834,1.7524960041046143,-0.20693060755729675
1660273551636761600,2.30576171875,-0.2485457956790924,1.7396678924560547,-0.640644907951355
1660273551638762000,2.307761962890625,-0.24549147486686707,1.683468222618103,-0.8263479471206665
1660273551640761900,2.309761962890625,-0.23083069920539856,1.4904348850250244,-1.1372783184051514
1660273551642762800,2.3117626953125,-0.19417878985404968,1.2686907052993774,-1.3614659309387207
1660273551644763600,2.313763671875,-0.16607898473739624,1.1226940155029297,-1.4439327716827393
1660273551646763800,2.315763671875,-0.12148582190275192,0.8453611135482788,-1.5215126276016235
1660273551648764000,2.317763916015625,-0.09582948684692383,0.5619196891784668,-1.5111279487609863
1660273551650763800,2.319763671875,-0.03413209691643715,0.43852490186691284,-1.4787520170211792
1660273551652764000,2.321763916015625,0.007406740915030241,0.22777637839317322,-1.3730723857879639
1660273551654764000,2.323763916015625,0.026343563571572304,0.1324813961982727,-1.2924381494522095
1660273551656764000,2.325763916015625,0.061162881553173065,-0.01412625890225172,-1.109789490699768
1660273551658763800,2.327763671875,0.07215845584869385,-0.09903652966022491,-0.8965974450111389
1660273551660764000,2.329763916015625,0.06788240373134613,-0.12347114086151123,-0.7835873961448669
1660273551662763000,2.331762939453125,-0.11843150109052658,0.08972083032131195,0.11988230794668198
1660273551664762000,2.33376220703125,-0.11843150109052658,0.08972083032131195,0.11988230794668198
1660273551666761200,2.33576123046875,-0.11843150109052658,0.08972083032131195,0.11988230794668198
1660273551668760300,2.33776025390625,-0.11843150109052658,0.08972083032131195,0.11988230794668198
1660273551670760200,2.33976025390625,-0.15691600739955902,0.15691600739955902,0.2194533348083496
1660273551672760300,2.34176025390625,-0.19723311066627502,0.2192242592573166,0.31902438402175903
1660273551674760200,2.34376025390625,-0.27298039197921753,0.3505602777004242,0.4973970353603363
1660273551676760300,2.34576025390625,-0.349338561296463,0.4709007441997528,0.6604980230331421
1660273551678759400,2.347759521484375,-0.3866013288497925,0.5301546454429626,0.7374670505523682
1660273551680759600,2.349759521484375,-0.45746171474456787,0.6321691870689392,0.877966046333313
1660273551682760200,2.35176025390625,-0.5167156457901001,0.7121925354003906,1.021519422531128
1660273551684761000,2.353760986328125,-0.5503132343292236,0.7372379899024963,1.0899362564086914
1660273551686762000,2.355761962890625,-0.5997933149337769,0.7677812576293945,1.2151637077331543
1660273551688763000,2.357762939453125,-0.6309474110603333,0.7812203168869019,1.3196216821670532
1660273551690763000,2.359762939453125,-0.6407212615013123,0.7934376001358032,1.3666582107543945
1660273551692763400,2.361763427734375,-0.640110433101654,0.847193717956543,1.4369077682495117
1660273551694763300,2.36376318359375,-0.6126214861869812,0.9583712220191956,1.4808900356292725
1660273551696763400,2.365763427734375,-0.5900194644927979,1.0322859287261963,1.4906638860702515
1660273551698763800,2.367763671875,-0.5362633466720581,1.1984412670135498,1.5041029453277588
1660273551700763600,2.369763671875,-0.4464661478996277,1.370705246925354,1.4906638860702515
1660273551702762800,2.3717626953125,0.10942123830318451,1.8795560598373413,1.383151650428772
1660273551704761900,2.373761962890625,0.19188804924488068,1.9162079095840454,1.3752104043960571
1660273551706761000,2.375760986328125,0.2719113826751709,1.9406424760818481,1.3666582107543945
1660273551708760000,2.377760009765625,0.2719113826751709,1.9406424760818481,1.3666582107543945
1660273551710759200,2.37975927734375,0.2719113826751709,1.9406424760818481,1.3666582107543945
1660273551712758300,2.38175830078125,0.2719113826751709,1.9406424760818481,1.3666582107543945
1660273551714758100,2.383758056640625,0.3635411858558655,1.9632445573806763,1.3581061363220215
1660273551716757800,2.3857578125,0.539470374584198,1.979127049446106,1.3446670770645142
1660273551718758000,2.3877578125,0.7349472641944885,1.9931769371032715,1.3269519805908203
1660273551720757800,2.3897578125,0.8387943506240845,2.0102810859680176,1.315956473350525
1660273551722759000,2.391759033203125,1.042823314666748,2.0768654346466064,1.2878566980361938
1660273551724758800,2.3937587890625,1.2462414503097534,2.203925371170044,1.2481504678726196
1660273551726759000,2.395759033203125,1.3415364027023315,2.2857813835144043,1.2261592149734497
1660273551728758800,2.3977587890625,1.517465591430664,2.4849233627319336,1.1785117387771606
1660273551730759000,2.399759033203125,1.6665167808532715,2.704224109649658,1.1284208297729492
1660273551732758800,2.4017587890625,1.7288249731063843,2.8135690689086914,1.108262300491333
1660273551734759000,2.403759033203125,1.8180112838745117,3.042032480239868,1.0557278394699097
1660273551736758800,2.4057587890625,1.858939290046692,3.267441749572754,1.003804326057434
1660273551738758700,2.407758544921875,1.8601610660552979,3.379230260848999,0.9781479835510254
1660273551740757000,2.409757080078125,1.813124418258667,3.5734853744506836,0.9188940525054932
1660273551742754300,2.41175439453125,1.6390278339385986,3.8111119270324707,0.8132143616676331
1660273551744754400,2.41375439453125,1.6390278339385986,3.8111119270324707,0.8132143616676331
1660273551746754300,2.41575439453125,1.4777593612670898,3.899076461791992,0.7399105429649353
1660273551748754200,2.417754150390625,1.2877802848815918,3.901520013809204,0.6769914031028748
1660273551750754000,2.419754150390625,1.186376690864563,3.853261709213257,0.651945948600769
1660273551752754200,2.421754150390625,0.9579130411148071,3.6266305446624756,0.5884159207344055
1660273551754754000,2.423754150390625,0.7343363761901855,3.23689866065979,0.5419901609420776
1660273551756754200,2.425754150390625,0.632932722568512,2.9956068992614746,0.5303837656974792
1660273551758754000,2.427754150390625,0.46066874265670776,2.4617106914520264,0.5187773108482361
1660273551760754200,2.429754150390625,0.32933273911476135,1.8807777166366577,0.5438227653503418
1660273551762754000,2.431754150390625,0.27863091230392456,1.581453800201416,0.5639813542366028
1660273551764754200,2.433754150390625,0.2059379518032074,0.9846383929252625,0.6342308521270752
1660273551766754300,2.43575439453125,0.16684256494045258,0.4269184470176697,0.717308521270752
1660273551768754200,2.437754150390625,0.15767958760261536,0.16668985784053802,0.7637342810630798
1660273551770754300,2.43975439453125,0.16134478151798248,-0.2975677251815796,0.8529205918312073
1660273551772754200,2.441754150390625,0.1808924674987793,-0.6946301460266113,0.9439395070075989
1660273551774754000,2.443754150390625,0.18944458663463593,-0.8748353719711304,0.9854783415794373
1660273551776754200,2.445754150390625,0.2053270787000656,-1.1998157501220703,1.067945122718811
1660273551778754600,2.447754638671875,0.2205987125635147,-1.444772720336914,1.133307695388794
1660273551780754400,2.44975439453125,0.22976168990135193,-1.5357916355133057,1.1601858139038086
1660273551782753500,2.45175341796875,0.25969409942626953,-1.7123316526412964,1.2121093273162842
1660273551784752600,2.453752685546875,0.25969409942626953,-1.7123316526412964,1.2121093273162842
1660273551786752800,2.455752685546875,0.26458099484443665,-1.7245489358901978,1.2133311033248901
1660273551788752600,2.457752685546875,0.26335927844047546,-1.7147750854492188,1.2060006856918335
1660273551790752800,2.459752685546875,0.25297456979751587,-1.680566668510437,1.1895073652267456
1660273551792752600,2.461752685546875,0.24869851768016815,-1.6561319828033447,1.1809552907943726
1660273551794752500,2.46375244140625,0.2419789880514145,-1.5993216037750244,1.1522445678710938
1660273551796752600,2.465752685546875,0.23709207773208618,-1.537013292312622,1.116814374923706
1660273551798752500,2.46775244140625,0.23403774201869965,-1.5034157037734985,1.0966558456420898
1660273551800753200,2.469753173828125,0.23342688381671906,-1.422170639038086,1.052673578262329
1660273551802754000,2.471754150390625,0.23770293593406677,-1.337260365486145,1.0001391172409058
1660273551804754000,2.47375390625,0.23770293593406677,-1.292667269706726,0.9714284539222717
1660273551806754000,2.475754150390625,0.23709207773208618,-1.2016483545303345,0.9066767692565918
1660273551808754000,2.47775390625,0.23770293593406677,-1.0953577756881714,0.8376489877700806
1660273551810754000,2.479754150390625,0.23342688381671906,-1.0354928970336914,0.804051399230957
1660273551812754400,2.48175439453125,0.22976168990135193,-0.9041569232940674,0.7392996549606323
1660273551814754600,2.483754638671875,0.2205987125635147,-0.7606036067008972,0.6763805150985718
1660273551816754400,2.48575439453125,0.2157117873430252,-0.6872997879981995,0.6470590233802795
1660273551818754300,2.48775439453125,0.20227275788784027,-0.5223661661148071,0.5914703011512756
1660273551820754400,2.48975439453125,0.18761198222637177,-0.3580434024333954,0.5462662577629089
1660273551822753500,2.49175341796875,0.14790575206279755,0.22594378888607025,0.4222606122493744
1660273551824752600,2.493752685546875,0.14790575206279755,0.22594378888607025,0.4222606122493744
1660273551826751500,2.49575146484375,0.14790575206279755,0.22594378888607025,0.4222606122493744
1660273551828750600,2.49775048828125,0.14790575206279755,0.22594378888607025,0.4222606122493744
1660273551830750700,2.499750732421875,0.14424055814743042,0.30169108510017395,0.4118759036064148
1660273551832750800,2.501750732421875,0.15401439368724823,0.4311945140361786,0.38377609848976135
1660273551834750700,2.503750732421875,0.1601230502128601,0.48800498247146606,0.36972618103027344
1660273551836750800,2.505750732421875,0.17783814668655396,0.592462956905365,0.351400226354599
1660273551838750500,2.50775048828125,0.20410534739494324,0.6895905137062073,0.3367394804954529
1660273551840750300,2.509750244140625,0.216322660446167,0.7390705943107605,0.33246341347694397
1660273551842751200,2.511751220703125,0.24747678637504578,0.8288677930831909,0.3251330256462097
1660273551844752100,2.513752197265625,0.27435484528541565,0.904615044593811,0.3196352422237396
1660273551846752300,2.515752197265625,0.28901562094688416,0.9382126331329346,0.3159700334072113
1660273551848752400,2.51775244140625,0.31528282165527344,0.9852492809295654,0.30925053358078003
1660273551850752300,2.519752197265625,0.33971744775772095,1.021901249885559,0.30253100395202637
1660273551852752600,2.521752685546875,0.3476586937904358,1.038394570350647,0.3000875413417816
1660273551854753300,2.523753173828125,0.3610977232456207,1.0683269500732422,0.29825496673583984
1660273551856753400,2.52575341796875,0.3610977232456207,1.1037571430206299,0.3068070709705353
1660273551858753300,2.527753173828125,0.36048686504364014,1.122083067893982,0.3153591752052307
1660273551860753000,2.5297529296875,0.34521523118019104,1.161178469657898,0.3459024429321289
1660273551862752000,2.531751953125,0.24992024898529053,1.1367439031600952,0.6238461136817932
1660273551864751000,2.533751220703125,0.24992024898529053,1.1367439031600952,0.6238461136817932
1660273551866750200,2.535750244140625,0.23464861512184143,1.0903180837631226,0.6824892163276672
1660273551868749300,2.537749267578125,0.23464861512184143,1.0903180837631226,0.6824892163276672
1660273551870749200,2.539749267578125,0.23464861512184143,1.0903180837631226,0.6824892163276672
1660273551872748800,2.541748779296875,0.1961641013622284,0.9516516923904419,0.8077165484428406
1660273551874749000,2.5437490234375,0.1558469980955124,0.7745007872581482,0.9500481486320496
1660273551876748800,2.545748779296875,0.13752104341983795,0.6749297380447388,1.0306823253631592
1660273551878748700,2.547748779296875,0.09659306704998016,0.44768786430358887,1.201724648475647
1660273551880748500,2.54974853515625,0.06299547851085663,0.19540052115917206,1.3807082176208496
1660273551882749400,2.55174951171875,0.04528038576245308,0.061621032655239105,1.4747813940048218
1660273551884750300,2.553750244140625,0.011682798154652119,-0.19738583266735077,1.6610952615737915
1660273551886751200,2.555751220703125,-0.023136520758271217,-0.4331798255443573,1.83824622631073
1660273551888752000,2.557752197265625,-0.04329507425427437,-0.5382486581802368,1.9170478582382202
1660273551890752300,2.559752197265625,-0.08055785298347473,-0.7141778469085693,2.0502164363861084
1660273551892752100,2.561752197265625,-0.11476630717515945,-0.8467355966567993,2.1589505672454834
1660273551894752000,2.563751953125,-0.1324813961982727,-0.8956047892570496,2.2011001110076904
1660273551896752000,2.565752197265625,-0.16546812653541565,-0.9609673619270325,2.2634084224700928
1660273551898752000,2.567751953125,-0.19601137936115265,-0.9823476672172546,2.300671339035034
1660273551900752000,2.569751953125,-0.21189388632774353,-0.9780716300010681,2.3049473762512207
1660273551902751000,2.5717509765625,-0.34750595688819885,-0.5315291285514832,2.140624523162842
1660273551904750000,2.57375,-0.34750595688819885,-0.5315291285514832,2.140624523162842
1660273551906749400,2.57574951171875,-0.36338844895362854,-0.4429536461830139,2.104583501815796
