time,seconds_elapsed,z,y,x
1660273549482728400,0.151728515625,0.5009095072746277,-0.5265658497810364,1.5167783498764038
1660273549484728300,0.153728271484375,0.49357911944389343,-0.5644394755363464,1.5015068054199219
1660273549486728400,0.155728515625,0.4917465150356293,-0.5968153476715088,1.4880677461624146
1660273549488730400,0.15773046875,0.4948008358478546,-0.607200026512146,1.4819591045379639
1660273549490730500,0.15973046875,0.4996877610683441,-0.6249151229858398,1.4691308736801147
1660273549492723700,0.1617236328125,0.5057964324951172,-0.6316346526145935,1.4648548364639282
1660273549494723600,0.1637236328125,0.5204572081565857,-0.6414085030555725,1.4538593292236328
1660273549496723700,0.1657236328125,0.5375614166259766,-0.6444628238677979,1.441641926765442
1660273549498720000,0.167719970703125,0.6352998614311218,-0.6352998614311218,1.3744467496871948
1660273549500717000,0.169717041015625,0.6493497490882874,-0.6298020482063293,1.3646728992462158
1660273549502714000,0.171714111328125,0.66584312915802,-0.6230825781822205,1.3530665636062622
1660273549504711700,0.173711669921875,0.66584312915802,-0.6230825781822205,1.3530665636062622
1660273549506709500,0.17570947265625,0.66584312915802,-0.6230825781822205,1.3530665636062622
1660273549508707600,0.17770751953125,0.66584312915802,-0.6230825781822205,1.3530665636062622
1660273549510707700,0.179707763671875,0.6841690540313721,-0.6139195561408997,1.3377948999404907
1660273549512707800,0.181707763671875,0.7238753437995911,-0.5943718552589417,1.3151928186416626
1660273549514707700,0.183707763671875,0.770301103591919,-0.5754350423812866,1.2883148193359375
1660273549516707800,0.185707763671875,0.7947356700897217,-0.5662720799446106,1.2748757600784302
1660273549518707700,0.187707763671875,0.8399397134780884,-0.5473352670669556,1.246165156364441
1660273549520707800,0.189707763671875,0.8949176073074341,-0.5381723046302795,1.2137892246246338
1660273549522707700,0.191707763671875,0.921184778213501,-0.5375614166259766,1.1997393369674683
1660273549524707800,0.193707763671875,0.9767735004425049,-0.5436700582504272,1.1624765396118164
1660273549526707700,0.195707763671875,1.0311405658721924,-0.5534439086914062,1.129489779472351
1660273549528707800,0.197707763671875,1.0873401165008545,-0.5656611919403076,1.0983357429504395
1660273549530707700,0.199707763671875,1.1148290634155273,-0.5717698931694031,1.083064079284668
1660273549532707800,0.201707763671875,1.1691961288452148,-0.5852088928222656,1.0531316995620728
1660273549534707700,0.203707763671875,1.1997393369674683,-0.5894849896430969,1.0409144163131714
1660273549536707800,0.205707763671875,1.2602150440216064,-0.6090326309204102,1.0128145217895508
1660273549538705200,0.207705078125,1.3439035415649414,-0.656680166721344,0.9724974632263184
1660273549540705300,0.209705322265625,1.3439035415649414,-0.656680166721344,0.9724974632263184
1660273549542705200,0.211705078125,1.4019356966018677,-0.7006624341011047,0.9419541954994202
1660273549544705300,0.213705322265625,1.4563027620315552,-0.7605272531509399,0.9138544201850891
1660273549546705400,0.215705322265625,1.483791708946228,-0.7959573864936829,0.9004153609275818
1660273549548705300,0.217705322265625,1.5332717895507812,-0.8747590184211731,0.8778133392333984
1660273549550705400,0.219705322265625,1.5839735269546509,-0.9608910083770752,0.8533787727355957
1660273549552705500,0.22170556640625,1.6071864366531372,-1.007927656173706,0.8442157506942749
1660273549554705700,0.22370556640625,1.653001308441162,-1.1062769889831543,0.8246681094169617
1660273549556705500,0.22570556640625,1.6963727474212646,-1.2082914113998413,0.8130616545677185
1660273549558705700,0.22770556640625,1.7165313959121704,-1.2638801336288452,0.8057312369346619
1660273549560705500,0.22970556640625,1.7507398128509521,-1.3744467496871948,0.8038986921310425
1660273549562705700,0.23170556640625,1.7751743793487549,-1.4966198205947876,0.808174729347229
1660273549564705500,0.23370556640625,1.7861700057983398,-1.5583171844482422,0.8093964457511902
1660273549566705700,0.23570556640625,1.7989981174468994,-1.690264105796814,0.8246681094169617
1660273549568705500,0.23770556640625,1.8038851022720337,-1.8289304971694946,0.8472700715065002
1660273549570705700,0.23970556640625,1.8038851022720337,-1.901012659072876,0.8631525635719299
1660273549572705500,0.24170556640625,1.8008307218551636,-2.0567831993103027,0.8955284357070923
1660273549574705700,0.24370556640625,1.8008307218551636,-2.211332082748413,0.941343367099762
1660273549576705800,0.245705810546875,1.7989981174468994,-2.2907447814941406,0.9663888216018677
1660273549578705000,0.247704833984375,1.7989981174468994,-2.599231719970703,1.0885618925094604
1660273549580704000,0.2497041015625,1.7989981174468994,-2.599231719970703,1.0885618925094604
1660273549582704000,0.2517041015625,1.7996090650558472,-2.6792550086975098,1.1252137422561646
1660273549584704300,0.253704345703125,1.8002198934555054,-2.8380799293518066,1.2034045457839966
1660273549586704400,0.255704345703125,1.803274154663086,-2.99812650680542,1.2846496105194092
1660273549588704300,0.257704345703125,1.80510675907135,-3.0781500339508057,1.3274102210998535
1660273549590704400,0.259704345703125,1.8014415502548218,-3.2449162006378174,1.4202617406845093
1660273549592704300,0.261704345703125,1.7904460430145264,-3.411071538925171,1.5204435586929321
1660273549594704400,0.263704345703125,1.7831156253814697,-3.495370864868164,1.568701982498169
1660273549596704300,0.265704345703125,1.76723313331604,-3.659693717956543,1.6731599569320679
1660273549598705200,0.267705078125,1.7482963800430298,-3.8197402954101562,1.778228759765625
1660273549600705300,0.269705322265625,1.7415767908096313,-3.8979310989379883,1.833817481994629
1660273549602705200,0.271705078125,1.7238616943359375,-4.054312705993652,1.9419406652450562
1660273549604705300,0.273705322265625,1.7159204483032227,-4.202753067016602,2.049452781677246
1660273549606705200,0.275705078125,1.7153096199035645,-4.277278423309326,2.101376533508301
1660273549608705000,0.277705078125,1.720807433128357,-4.417166709899902,2.1978931427001953
1660273549610705200,0.279705078125,1.7452419996261597,-4.541172027587891,2.2846360206604004
1660273549612705000,0.281705078125,1.7617353200912476,-4.600426197052002,2.3218986988067627
1660273549614705200,0.283705078125,1.8057177066802979,-4.7054948806762695,2.3829853534698486
1660273549616705000,0.285705078125,1.853365182876587,-4.797735691070557,2.4214699268341064
1660273549618704100,0.2877041015625,2.0280725955963135,-5.018258094787598,2.3469443321228027
1660273549620703200,0.289703125,2.0280725955963135,-5.018258094787598,2.3469443321228027
1660273549622702300,0.291702392578125,2.0280725955963135,-5.018258094787598,2.3469443321228027
1660273549624701400,0.293701416015625,2.0280725955963135,-5.018258094787598,2.3469443321228027
1660273549626701600,0.29570166015625,2.0445659160614014,-5.039027214050293,2.310903310775757
1660273549628701700,0.29770166015625,2.083050489425659,-5.070792198181152,2.22782564163208
1660273549630701600,0.29970166015625,2.104430675506592,-5.077511787414551,2.186286687850952
1660273549632701700,0.30170166015625,2.157576084136963,-5.0683488845825195,2.096489429473877
1660273549634701800,0.303701904296875,2.2229385375976562,-5.031085968017578,2.006692409515381
1660273549636701700,0.30570166015625,2.261423110961914,-5.002375602722168,1.9620991945266724
1660273549638702300,0.307702392578125,2.344500780105591,-4.921741485595703,1.8668042421340942
1660273549640703200,0.309703125,2.440406560897827,-4.824613571166992,1.7702875137329102
1660273549642702800,0.311702880859375,2.4917192459106445,-4.7696356773376465,1.719585657119751
1660273549644702700,0.31370263671875,2.598620653152466,-4.663956165313721,1.607797384262085
1660273549646702600,0.31570263671875,2.705522060394287,-4.571104526519775,1.490511178970337
1660273549648702700,0.31770263671875,2.7562239170074463,-4.535063743591309,1.4288138151168823
1660273549650702800,0.319702880859375,2.858238458633423,-4.472144603729248,1.2974777221679688
1660273549652702700,0.32170263671875,2.9584202766418457,-4.424497127532959,1.1643091440200806
1660273549654702800,0.323702880859375,3.0109548568725586,-4.4067816734313965,1.0958921909332275
1660273549656702700,0.32570263671875,3.116023540496826,-4.378071308135986,0.9651671051979065
1660273549658702000,0.3277021484375,3.5417966842651367,-4.272391319274902,0.5381723046302795
1660273549660701200,0.329701171875,3.5417966842651367,-4.272391319274902,0.5381723046302795
1660273549662700300,0.3317001953125,3.5417966842651367,-4.272391319274902,0.5381723046302795
1660273549664699400,0.333699462890625,3.6144895553588867,-4.2613959312438965,0.48319441080093384
1660273549666699500,0.335699462890625,3.6144895553588867,-4.2613959312438965,0.48319441080093384
1660273549668699600,0.33769970703125,3.7592647075653076,-4.253454685211182,0.38179078698158264
1660273549670699500,0.339699462890625,3.910759210586548,-4.25406551361084,0.2919935882091522
1660273549672699600,0.34169970703125,3.9877283573150635,-4.256508827209473,0.25106561183929443
1660273549674699500,0.343699462890625,4.13739013671875,-4.275445938110352,0.1869247704744339
1660273549676699600,0.34569970703125,4.278500080108643,-4.305378437042236,0.14905111491680145
1660273549678700500,0.347700439453125,4.340808391571045,-4.338365077972412,0.1466076523065567
1660273549680701200,0.349701171875,4.452596664428711,-4.4513750076293945,0.2278527319431305
1660273549682702000,0.3517021484375,4.560719966888428,-4.541172027587891,0.36529740691185
1660273549684703000,0.353702880859375,4.609589099884033,-4.556443691253662,0.4349360466003418
1660273549686702800,0.355702880859375,4.696331977844238,-4.535063743591309,0.5839871764183044
1660273549688703000,0.357702880859375,4.74642276763916,-4.527733325958252,0.7519751191139221
1660273549690702600,0.35970263671875,4.761083602905273,-4.540561199188232,0.8423831462860107
1660273549692702500,0.361702392578125,4.769024848937988,-4.615087032318115,1.018923282623291
1660273549694702300,0.363702392578125,4.760472774505615,-4.737259864807129,1.1966849565505981
1660273549696702500,0.365702392578125,4.750088214874268,-4.8056769371032715,1.2877039909362793
1660273549698701600,0.36770166015625,4.586987018585205,-5.214956760406494,2.2547035217285156
1660273549700700700,0.36970068359375,4.568661212921143,-5.230228424072266,2.37321138381958
1660273549702700300,0.3717001953125,4.552778720855713,-5.240612983703613,2.4825563430786133
1660273549704699400,0.373699462890625,4.552778720855713,-5.240612983703613,2.4825563430786133
1660273549706698500,0.375698486328125,4.552778720855713,-5.240612983703613,2.4825563430786133
1660273549708697600,0.377697509765625,4.552778720855713,-5.240612983703613,2.4825563430786133
1660273549710697700,0.37969775390625,4.541783332824707,-5.248554229736328,2.5900685787200928
1660273549712697300,0.381697265625,4.527122497558594,-5.257717132568359,2.785545587539673
1660273549714697200,0.383697265625,4.5210137367248535,-5.255273818969727,2.8747317790985107
1660273549716697300,0.385697265625,4.513072490692139,-5.2467217445373535,3.0250046253204346
1660273549718696200,0.3876962890625,4.513683319091797,-5.229006290435791,3.145956039428711
1660273549720696300,0.3896962890625,4.5155158042907715,-5.216789245605469,3.193603515625
1660273549722696200,0.3916962890625,4.521624565124512,-5.186856746673584,3.2736268043518066
1660273549724696300,0.3936962890625,4.535674571990967,-5.147761344909668,3.3267722129821777
1660273549726696200,0.3956962890625,4.546669960021973,-5.118439674377441,3.3481523990631104
1660273549728696300,0.3976962890625,4.568050384521484,-5.048190593719482,3.3793065547943115
1660273549730696200,0.3996962890625,4.596149921417236,-4.955949783325195,3.392134666442871
1660273549732696300,0.4016962890625,4.61081075668335,-4.904026031494141,3.391523838043213
1660273549734696200,0.4036962890625,4.645630359649658,-4.7904052734375,3.3799173831939697
1660273549736696300,0.4056962890625,4.687779903411865,-4.658458232879639,3.353039264678955
1660273549738693600,0.407693603515625,4.7274861335754395,-4.517959117889404,3.313943862915039
1660273549740694300,0.4096943359375,4.747033596038818,-4.440379619598389,3.288898468017578
1660273549742694100,0.411694091796875,4.7904052734375,-4.282776355743408,3.2339205741882324
1660273549744694300,0.4136943359375,4.809952735900879,-4.199087619781494,3.201544761657715
1660273549746694100,0.415694091796875,4.849658966064453,-4.031710624694824,3.1312952041625977
1660273549748694300,0.4176943359375,4.886311054229736,-3.8618900775909424,3.0586023330688477
1660273549750694400,0.4196943359375,4.902193546295166,-3.7763688564300537,3.0219504833221436
1660273549752694300,0.4216943359375,4.930293560028076,-3.6053266525268555,2.941926956176758
1660273549754694400,0.4236943359375,4.954117298126221,-3.428175687789917,2.8594601154327393
1660273549756694500,0.425694580078125,4.966334342956543,-3.3396003246307373,2.8185322284698486
1660273549758695000,0.42769482421875,4.9816060066223145,-3.162449359893799,2.7403414249420166
1660273549760695000,0.429695068359375,4.995045185089111,-2.9889636039733887,2.662761688232422
1660273549762695000,0.43169482421875,4.998099327087402,-2.902831554412842,2.6261096000671387
1660273549764695000,0.433695068359375,5.000543117523193,-2.738508939743042,2.5613579750061035
1660273549766695000,0.43569482421875,4.994434356689453,-2.5809056758880615,2.5021040439605713
1660273549768695000,0.437695068359375,4.9926018714904785,-2.5088236331939697,2.4770586490631104
1660273549770695000,0.43969482421875,4.977330207824707,-2.370157241821289,2.4306328296661377
1660273549772695000,0.441695068359375,4.957171440124512,-2.246762275695801,2.397646188735962
1660273549774695000,0.44369482421875,4.945565223693848,-2.186286687850952,2.384207010269165
1660273549776695000,0.445695068359375,4.910745620727539,-2.0812180042266846,2.3609941005706787
1660273549778694100,0.447694091796875,4.8172831535339355,-1.901012659072876,2.3402247428894043
1660273549780693200,0.449693359375,4.8172831535339355,-1.901012659072876,2.3402247428894043
1660273549782693400,0.451693359375,4.787961959838867,-1.86191725730896,2.339613914489746
1660273549784693200,0.453693359375,4.725653648376465,-1.7892242670059204,2.344500780105591
1660273549786693400,0.455693359375,4.6914448738098145,-1.7544050216674805,2.3493876457214355
1660273549788693500,0.457693603515625,4.619973659515381,-1.6896532773971558,2.3658812046051025
1660273549790693400,0.459693359375,4.541783332824707,-1.6200146675109863,2.3878722190856934
1660273549792693500,0.461693603515625,4.500244140625,-1.5851953029632568,2.4043655395507812
1660273549794693600,0.463693603515625,4.420831680297852,-1.511891484260559,2.433687210083008
1660273549796693000,0.46569287109375,4.337143421173096,-1.4324790239334106,2.472782611846924
1660273549798694000,0.46769384765625,4.29804801940918,-1.3915510177612305,2.495384454727173
1660273549800693800,0.46969384765625,4.218635559082031,-1.3096951246261597,2.5411994457244873
1660273549802693600,0.471693603515625,4.140444755554199,-1.2278391122817993,2.5949554443359375
1660273549804693800,0.47369384765625,4.103181838989258,-1.187522053718567,2.621222734451294
1660273549806693600,0.475693603515625,4.030488967895508,-1.1148290634155273,2.676811456680298
1660273549808693800,0.47769384765625,3.953519821166992,-1.054964303970337,2.7317893505096436
1660273549810693600,0.479693603515625,3.913813591003418,-1.0317513942718506,2.7598891258239746
1660273549812693800,0.48169384765625,3.8398988246917725,-0.9975429177284241,2.8173105716705322
1660273549814693600,0.483693603515625,3.7586538791656494,-0.9828822016716003,2.8771753311157227
1660273549816693500,0.485693603515625,3.7195584774017334,-0.9853256344795227,2.9046642780303955
1660273549818692600,0.487692626953125,3.441614866256714,-1.043968677520752,3.106860637664795
1660273549820691700,0.489691650390625,3.4067955017089844,-1.0604621171951294,3.134960412979126
1660273549822690800,0.49169091796875,3.4067955017089844,-1.0604621171951294,3.134960412979126
1660273549824690000,0.49368994140625,3.4067955017089844,-1.0604621171951294,3.134960412979126
1660273549826689800,0.495689697265625,3.369532585144043,-1.0775662660598755,3.160616874694824
1660273549828690000,0.49768994140625,3.332880735397339,-1.1001683473587036,3.1832187175750732
1660273549830690000,0.49968994140625,3.2626311779022217,-1.1429288387298584,3.218648910522461
1660273549832690000,0.50168994140625,3.1923818588256836,-1.1899654865264893,3.252246618270874
1660273549834690000,0.50368994140625,3.155118942260742,-1.2162326574325562,3.26629638671875
1660273549836690000,0.50568994140625,3.0867021083831787,-1.2608258724212646,3.288898468017578
1660273549838690800,0.50769091796875,3.0164525508880615,-1.3096951246261597,3.3072245121002197
1660273549840691700,0.509691650390625,2.9804115295410156,-1.33168625831604,3.313333034515381
1660273549842691800,0.51169189453125,2.9077186584472656,-1.3781119585037231,3.322496175765991
1660273549844691700,0.513691650390625,2.8380799293518066,-1.42637038230896,3.327993869781494
1660273549846691600,0.515691650390625,2.803260564804077,-1.4483615159988403,3.3237178325653076
1660273549848691700,0.517691650390625,2.727513313293457,-1.493565559387207,3.316387414932251
1660273549850691800,0.51969189453125,2.660928964614868,-1.5320500135421753,3.3011157512664795
1660273549852691700,0.521691650390625,2.6248879432678223,-1.549154281616211,3.2901201248168945
1660273549854691600,0.523691650390625,2.5583035945892334,-1.5693128108978271,3.2620203495025635
1660273549856692200,0.525692138671875,2.495995283126831,-1.5827518701553345,3.2253684997558594
1660273549858691300,0.52769140625,2.2180516719818115,-1.5833626985549927,3.015230894088745
1660273549860690400,0.5296904296875,2.1844542026519775,-1.576032280921936,2.9822440147399902
1660273549862689500,0.531689453125,2.1502456665039062,-1.5638149976730347,2.945592164993286
1660273549864688600,0.533688720703125,2.1502456665039062,-1.5638149976730347,2.945592164993286
1660273549866688000,0.53568798828125,2.1502456665039062,-1.5638149976730347,2.945592164993286
1660273549868687000,0.53768701171875,2.1502456665039062,-1.5638149976730347,2.945592164993286
1660273549870687200,0.539687255859375,2.1172590255737305,-1.5473216772079468,2.9138271808624268
1660273549872687000,0.54168701171875,2.048841953277588,-1.5094480514526367,2.8454103469848633
1660273549874687200,0.543687255859375,1.9804251194000244,-1.4666874408721924,2.7794368267059326
1660273549876687000,0.54568701171875,1.9437731504440308,-1.4526375532150269,2.7372870445251465
1660273549878687200,0.547687255859375,1.8582520484924316,-1.4593570232391357,2.6053402423858643
1660273549880687000,0.54968701171875,1.7666223049163818,-1.4324790239334106,2.465452194213867
1660273549882687200,0.551687255859375,1.7232508659362793,-1.4172073602676392,2.3988678455352783
1660273549884687000,0.55368701171875,1.6279559135437012,-1.463022232055664,2.2040019035339355
1660273549886687200,0.555687255859375,1.5076154470443726,-1.5833626985549927,1.9052886962890625
1660273549888687000,0.55768701171875,1.4526375532150269,-1.616349458694458,1.7336355447769165
1660273549890687200,0.559687255859375,1.3322970867156982,-1.6505578756332397,1.4214833974838257
1660273549892687000,0.56168701171875,1.2718214988708496,-1.5558737516403198,1.0800096988677979
1660273549894687200,0.563687255859375,1.238223910331726,-1.4654656648635864,0.9260717034339905
1660273549896687000,0.56568701171875,1.2009611129760742,-1.2614367008209229,0.6914994716644287
1660273549898684700,0.5676845703125,1.1178834438323975,0.09529497474431992,0.5674937963485718
1660273549900682200,0.56968212890625,1.0934487581253052,0.1918116807937622,0.5503895878791809
1660273549902680000,0.57168017578125,1.0677924156188965,0.27977627515792847,0.5259549617767334
1660273549904678100,0.57367822265625,1.0677924156188965,0.27977627515792847,0.5259549617767334
1660273549906676500,0.575676513671875,1.0677924156188965,0.27977627515792847,0.5259549617767334
1660273549908674800,0.5776748046875,1.0677924156188965,0.27977627515792847,0.5259549617767334
1660273549910675000,0.579675048828125,0.998153805732727,0.40683624148368835,0.4746423065662384
1660273549912674600,0.581674560546875,0.9541715383529663,0.45142942667007446,0.4489859640598297
1660273549914674400,0.58367431640625,0.8704829812049866,0.5265658497810364,0.3933972120285034
1660273549916674600,0.585674560546875,0.7910705208778381,0.5949827432632446,0.34025195240974426
1660273549918674700,0.5876748046875,0.7483099102973938,0.6346889734268188,0.32009339332580566
1660273549920673500,0.589673583984375,0.675616979598999,0.7195992469787598,0.2828305959701538
1660273549922673200,0.591673095703125,0.6126978397369385,0.7947356700897217,0.2675589919090271
1660273549924672800,0.5936728515625,0.5809328556060791,0.8222246170043945,0.27122417092323303
1660273549926672600,0.595672607421875,0.5247332453727722,0.8839219808578491,0.2791654169559479
1660273549928672000,0.597672119140625,0.4813618063926697,0.93095862865448,0.304210901260376
1660273549930671900,0.599671875,0.4593706727027893,0.9431759119033813,0.32681289315223694
1660273549932671500,0.60167138671875,0.4050036668777466,0.9340129494667053,0.3897320330142975
1660273549934671400,0.60367138671875,0.36590829491615295,0.9205739498138428,0.44104471802711487
1660273549936671500,0.60567138671875,0.3488040566444397,0.8857545852661133,0.4746423065662384
1660273549938668800,0.607668701171875,0.2871066629886627,0.7177666425704956,0.5858197808265686
1660273549940669000,0.6096689453125,0.2742784917354584,0.6524040699005127,0.6102544069290161
1660273549942668800,0.611668701171875,0.26022860407829285,0.5821545720100403,0.6346889734268188
1660273549944669000,0.6136689453125,0.2370157092809677,0.4141666293144226,0.685390830039978
1660273549946668800,0.615668701171875,0.22357667982578278,0.23945917189121246,0.7318165898323059
1660273549948669000,0.6176689453125,0.2217440903186798,0.1563815027475357,0.7544185519218445
1660273549950668800,0.619668701171875,0.21319197118282318,-0.012217304669320583,0.8032878041267395
1660273549952669000,0.6216689453125,0.20891591906547546,-0.18081611394882202,0.8588765263557434
1660273549954668800,0.623668701171875,0.20952677726745605,-0.2626720666885376,0.8924741148948669
1660273549956668700,0.625668701171875,0.20341812074184418,-0.423329621553421,0.969443142414093
1660273549958668500,0.62766845703125,0.19914206862449646,-0.5839871764183044,1.054964303970337
1660273549960668700,0.629668701171875,0.19792033731937408,-0.6646214127540588,1.0989465713500977
1660273549962668500,0.63166845703125,0.19608774781227112,-0.8313875794410706,1.1850786209106445
1660273549964668400,0.63366845703125,0.1875356286764145,-0.9865473508834839,1.2602150440216064
1660273549966668500,0.63566845703125,0.1869247704744339,-1.0592403411865234,1.2907582521438599
1660273549968668400,0.63766845703125,0.18387043476104736,-1.1917980909347534,1.3377948999404907
1660273549970668300,0.639668212890625,0.17898350954055786,-1.3048081398010254,1.3701707124710083
1660273549972668400,0.64166845703125,0.17409659922122955,-1.3585642576217651,1.3842206001281738
1660273549974668300,0.643668212890625,0.1661553531885147,-1.4440854787826538,1.4098769426345825
1660273549976668400,0.64566845703125,0.15027284622192383,-1.5063936710357666,1.4269812107086182
1660273549978667500,0.64766748046875,0.13744467496871948,-1.5735888481140137,1.4477506875991821
1660273549980666600,0.64966650390625,0.13744467496871948,-1.5906931161880493,1.451415777206421
1660273549982666500,0.65166650390625,0.12522737681865692,-1.6016886234283447,1.4495831727981567
1660273549984666600,0.65366650390625,0.11972958594560623,-1.613295078277588,1.4508049488067627
1660273549986666800,0.655666748046875,0.11301007121801376,-1.6212363243103027,1.4391984939575195
1660273549988666400,0.657666259765625,0.11056660860776901,-1.6187928915023804,1.4092661142349243
1660273549990666500,0.65966650390625,0.10751228034496307,-1.6059647798538208,1.3866641521453857
1660273549992666400,0.661666259765625,0.11178833991289139,-1.578475832939148,1.3341296911239624
1660273549994666500,0.66366650390625,0.11423180252313614,-1.529606580734253,1.2657127380371094
1660273549996666400,0.665666259765625,0.11484266817569733,-1.50211763381958,1.2272282838821411
1660273549998667300,0.667667236328125,0.1264491081237793,-1.4367550611495972,1.1410962343215942
1660273550000667100,0.669667236328125,0.13561208546161652,-1.3628404140472412,1.0494664907455444
1660273550002667300,0.671667236328125,0.14233160018920898,-1.3267992734909058,1.0012081861495972
1660273550004667100,0.673667236328125,0.15393804013729095,-1.2486085891723633,0.911410927772522
1660273550006667300,0.675667236328125,0.16859880089759827,-1.1704177856445312,0.817948579788208
1660273550008667100,0.677667236328125,0.17287486791610718,-1.131933331489563,0.7764097452163696
1660273550010667000,0.6796669921875,0.1814269721508026,-1.0574077367782593,0.6957755088806152
1660273550012667100,0.681667236328125,0.18875735998153687,-0.9877691268920898,0.6236934065818787
1660273550014667500,0.68366748046875,0.18997909128665924,-0.9511171579360962,0.5937610268592834
1660273550016667600,0.685667724609375,0.1869247704744339,-0.8845328688621521,0.53328537940979
1660273550018666800,0.687666748046875,0.1618792861700058,-0.6194173693656921,0.36529740691185
1660273550020666000,0.689666015625,0.1618792861700058,-0.6194173693656921,0.36529740691185
1660273550022665200,0.691665283203125,0.1618792861700058,-0.6194173693656921,0.36529740691185
1660273550024664300,0.693664306640625,0.1618792861700058,-0.6194173693656921,0.36529740691185
1660273550026665000,0.6956650390625,0.16004669666290283,-0.5803219676017761,0.3439171314239502
1660273550028665000,0.6976650390625,0.15393804013729095,-0.494189977645874,0.29993483424186707
1660273550030665200,0.699665283203125,0.1508837193250656,-0.4105014503002167,0.26022860407829285
1660273550032665000,0.7016650390625,0.1466076523065567,-0.3732386529445648,0.2474004179239273
1660273550034665200,0.703665283203125,0.14538592100143433,-0.2938261926174164,0.2125810980796814
1660273550036665000,0.7056650390625,0.1472185254096985,-0.25534167885780334,0.1918116807937622
1660273550038666000,0.707666015625,0.15577064454555511,-0.1869247704744339,0.1661553531885147
1660273550040667000,0.7096669921875,0.16493362188339233,-0.12278391420841217,0.13988813757896423
1660273550042666800,0.711666748046875,0.17287486791610718,-0.09346238523721695,0.1258382350206375
1660273550044667000,0.7136669921875,0.18814650177955627,-0.042760565876960754,0.11056660860776901
1660273550046666800,0.715666748046875,0.1966986060142517,0.00427605677396059,0.09468411654233932
1660273550048667100,0.717667236328125,0.20402899384498596,0.02687807008624077,0.08674286305904388
1660273550050667000,0.7196669921875,0.22418753802776337,0.07819075137376785,0.06291911751031876
1660273550052667100,0.721667236328125,0.23273965716362,0.14294247329235077,0.02871066704392433
1660273550054667000,0.7236669921875,0.24068090319633484,0.17837265133857727,0.00427605677396059
1660273550056667000,0.7256669921875,0.2528982162475586,0.24923302233219147,-0.05314527451992035
1660273550058666000,0.727666015625,0.1466076523065567,0.3341432809829712,-0.27122417092323303
1660273550060665300,0.729665283203125,0.10506882518529892,0.27977627515792847,-0.2718350291252136
1660273550062664400,0.73166455078125,0.10506882518529892,0.27977627515792847,-0.2718350291252136
1660273550064663600,0.73366357421875,0.10506882518529892,0.27977627515792847,-0.2718350291252136
1660273550066663700,0.73566357421875,0.10506882518529892,0.27977627515792847,-0.2718350291252136
1660273550068663600,0.73766357421875,0.021380282938480377,0.11850785464048386,-0.23151792585849762
1660273550070663700,0.73966357421875,-0.02321287989616394,-0.06902777403593063,-0.1508837193250656
1660273550072663600,0.74166357421875,-0.0354301854968071,-0.15515977144241333,-0.11178833991289139
1660273550074663200,0.7436630859375,-0.05009094998240471,-0.2981022298336029,-0.022602014243602753
1660273550076663000,0.7456630859375,-0.08491026610136032,-0.40133845806121826,0.059864792972803116
1660273550078664700,0.747664794921875,-0.11484266817569733,-0.44165557622909546,0.10018189996480942
1660273550080665600,0.74966552734375,-0.16737708449363708,-0.513126790523529,0.1667662113904953
1660273550082666200,0.751666259765625,-0.2168571650981903,-0.5852088928222656,0.2028072625398636
1660273550084667100,0.753667236328125,-0.23945917189121246,-0.6291912198066711,0.20952677726745605
1660273550086666500,0.75566650390625,-0.28527405858039856,-0.7153232097625732,0.2028072625398636
1660273550088666400,0.757666259765625,-0.3225368559360504,-0.8100073337554932,0.18509216606616974
1660273550090666200,0.759666259765625,-0.34697145223617554,-0.8484918475151062,0.17837265133857727
1660273550092666400,0.761666259765625,-0.384845107793808,-0.9254608750343323,0.16432274878025055
1660273550094666500,0.76366650390625,-0.4245513379573822,-0.9896016716957092,0.1716531366109848
1660273550096666400,0.765666259765625,-0.44776421785354614,-1.0201449394226074,0.17959438264369965
1660273550098665700,0.767665771484375,-0.7757988572120667,-1.178359031677246,0.3084869384765625
1660273550100664800,0.769664794921875,-0.8326093554496765,-1.2082914113998413,0.32009339332580566
1660273550102664000,0.771663818359375,-0.8906415104866028,-1.2577714920043945,0.3536909818649292
1660273550104663000,0.7736630859375,-0.8906415104866028,-1.2577714920043945,0.3536909818649292
1660273550106662100,0.775662109375,-0.8906415104866028,-1.2577714920043945,0.3536909818649292
1660273550108661500,0.77766162109375,-0.8906415104866028,-1.2577714920043945,0.3536909818649292
1660273550110661400,0.779661376953125,-0.9425650835037231,-1.2919800281524658,0.36224308609962463
1660273550112661500,0.78166162109375,-1.017701506614685,-1.350012183189392,0.3903428912162781
1660273550114661400,0.783661376953125,-1.0433578491210938,-1.3640620708465576,0.39706242084503174
1660273550116661500,0.78566162109375,-1.10139000415802,-1.3457361459732056,0.40072759985923767
1660273550118661400,0.787661376953125,-1.1508700847625732,-1.2834278345108032,0.3988949954509735
1660273550120665300,0.789665283203125,-1.188132882118225,-1.2046263217926025,0.40683624148368835
1660273550122665500,0.79166552734375,-1.2009611129760742,-1.147204875946045,0.4105014503002167
1660273550124665300,0.793665283203125,-1.2223412990570068,-1.0329731702804565,0.41172316670417786
1660273550126665500,0.79566552734375,-1.2217304706573486,-0.9663888216018677,0.403781920671463
1660273550128665300,0.797665283203125,-1.2205088138580322,-0.837496280670166,0.3805690407752991
1660273550130665500,0.79966552734375,-1.208902359008789,-0.7128797173500061,0.35124751925468445
1660273550132663800,0.801663818359375,-1.19912850856781,-0.6481280326843262,0.3323107063770294
1660273550134663700,0.80366357421875,-1.178359031677246,-0.5259549617767334,0.29077184200286865
1660273550136663800,0.805663818359375,-1.1398745775222778,-0.41233405470848083,0.24495697021484375
1660273550138661000,0.8076611328125,-1.0995573997497559,-0.30482175946235657,0.1918116807937622
1660273550140661200,0.8096611328125,-1.076344609260559,-0.25961771607398987,0.16371189057826996
1660273550142661400,0.811661376953125,-1.016479730606079,-0.20036379992961884,0.11911872029304504
1660273550144661500,0.81366162109375,-0.9896016716957092,-0.1771509200334549,0.09712757170200348
1660273550146661600,0.81566162109375,-0.9260717034339905,-0.15821409225463867,0.06414084881544113
1660273550148661500,0.81766162109375,-0.8582656979560852,-0.1661553531885147,0.0354301854968071
1660273550150661600,0.81966162109375,-0.8210029006004333,-0.18387043476104736,0.02687807008624077
1660273550152661800,0.821661865234375,-0.7470881938934326,-0.23884831368923187,0.018936822190880775
1660273550154661600,0.82366162109375,-0.6725626587867737,-0.29993483424186707,0.014049900695681572
1660273550156661800,0.825661865234375,-0.6316346526145935,-0.3549126982688904,0.029932396486401558
1660273550158661600,0.82766162109375,-0.5644394755363464,-0.44165557622909546,0.05009094998240471
1660273550160661800,0.829661865234375,-0.48808133602142334,-0.5558874011039734,0.08674286305904388
1660273550162661600,0.83166162109375,-0.4508185386657715,-0.6151412725448608,0.10445795953273773
1660273550164661800,0.833661865234375,-0.38117989897727966,-0.7269296646118164,0.14477506279945374
1660273550166661600,0.83566162109375,-0.313373863697052,-0.8307767510414124,0.192422553896904
1660273550168661500,0.83766162109375,-0.27611109614372253,-0.8967501521110535,0.22540926933288574
1660273550170661600,0.83966162109375,-0.20830504596233368,-1.0134254693984985,0.2932153046131134
1660273550172661500,0.84166162109375,-0.13255776464939117,-1.1081095933914185,0.3549126982688904
1660273550174661600,0.84366162109375,-0.09346238523721695,-1.158811330795288,0.3854559659957886
1660273550176661800,0.845661865234375,-0.02382374368607998,-1.2479976415634155,0.44654250144958496
1660273550178660900,0.847660888671875,0.11178833991289139,-1.4110987186431885,0.5497786998748779
1660273550180660000,0.849659912109375,0.11178833991289139,-1.4110987186431885,0.5497786998748779
1660273550182659800,0.851659912109375,0.14355333149433136,-1.4227051734924316,0.5638286471366882
1660273550184660000,0.853659912109375,0.19914206862449646,-1.4941763877868652,0.5992587804794312
1660273550186659800,0.855659912109375,0.22296582162380219,-1.5241087675094604,0.6102544069290161
1660273550188660000,0.857659912109375,0.2736676335334778,-1.5522085428237915,0.6139195561408997
1660273550190659800,0.859659912109375,0.30604347586631775,-1.5851953029632568,0.6206390857696533
1660273550192660200,0.86166015625,0.32131510972976685,-1.5961909294128418,0.6102544069290161
1660273550194660400,0.863660400390625,0.3597996234893799,-1.5735888481140137,0.5717698931694031
1660273550196660200,0.86566015625,0.3933972120285034,-1.5467108488082886,0.5424483418464661
1660273550198661000,0.8676611328125,0.403781920671463,-1.547932505607605,0.5210680365562439
1660273550200661200,0.8696611328125,0.4404338300228119,-1.5234979391098022,0.46670106053352356
1660273550202661000,0.8716611328125,0.47219884395599365,-1.5155566930770874,0.42210787534713745
1660273550204661000,0.873660888671875,0.484416127204895,-1.49906325340271,0.394008070230484
1660273550206661000,0.8756611328125,0.5216789245605469,-1.4764612913131714,0.3396410644054413
1660273550208661000,0.877660888671875,0.5424483418464661,-1.5149458646774292,0.31031954288482666
1660273550210660900,0.879660888671875,0.5455026626586914,-1.5082262754440308,0.2993239760398865
1660273550212660700,0.88166064453125,0.5601634383201599,-1.4941763877868652,0.2687807083129883
1660273550214660900,0.883660888671875,0.5650503635406494,-1.4947872161865234,0.25473082065582275
1660273550216660700,0.88566064453125,0.5632177591323853,-1.539380431175232,0.26145032048225403
1660273550218660000,0.88766015625,0.5479460954666138,-1.757459282875061,0.4404338300228119
1660273550220659200,0.8896591796875,0.5479460954666138,-1.757459282875061,0.4404338300228119
1660273550222658300,0.891658203125,0.5491678714752197,-1.797776460647583,0.4801400899887085
1660273550224657400,0.893657470703125,0.5491678714752197,-1.797776460647583,0.4801400899887085
1660273550230799600,0.899799560546875,0.5442809462547302,-1.8448129892349243,0.5210680365562439
1660273550232799700,0.9017998046875,0.5442809462547302,-1.9138407707214355,0.5748242139816284
1660273550234799600,0.903799560546875,0.5357288122177124,-1.9987510442733765,0.675006091594696
1660273550236799700,0.9057998046875,0.5503895878791809,-2.104430675506592,0.8112290501594543
1660273550238799600,0.907799560546875,0.5583308339118958,-2.12397837638855,0.8723155856132507
1660273550240799500,0.909799560546875,0.5729916095733643,-2.2455406188964844,1.015868902206421
1660273550242800400,0.91180029296875,0.6010913848876953,-2.3218986988067627,1.158811330795288
1660273550244802300,0.91380224609375,0.6151412725448608,-2.3664920330047607,1.2296717166900635
1660273550246802200,0.91580224609375,0.6377432942390442,-2.3970351219177246,1.3603968620300293
1660273550248801800,0.9178017578125,0.6572909951210022,-2.451402187347412,1.4813482761383057
1660273550250801700,0.9198017578125,0.6731734871864319,-2.4807238578796387,1.5454890727996826
1660273550252801800,0.9218017578125,0.6951646208763123,-2.4966063499450684,1.6462818384170532
1660273550254801700,0.9238017578125,0.7159340381622314,-2.4770586490631104,1.72935950756073
1660273550256801800,0.9258017578125,0.7342600226402283,-2.4605650901794434,1.768454909324646
1660273550258801700,0.9278017578125,0.769690215587616,-2.4135286808013916,1.8313740491867065
1660273550260801800,0.9298017578125,0.807563841342926,-2.3719897270202637,1.8692476749420166
1660273550262801000,0.93180078125,0.9932668805122375,-1.9926424026489258,1.871691107749939
1660273550264800000,0.933800048828125,0.9932668805122375,-1.9926424026489258,1.871691107749939
1660273550266799000,0.935799072265625,0.9932668805122375,-1.9926424026489258,1.871691107749939
1660273550268798200,0.937798095703125,0.9932668805122375,-1.9926424026489258,1.871691107749939
1660273550270798300,0.93979833984375,1.0195341110229492,-1.9260581731796265,1.8509217500686646
1660273550272798200,0.941798095703125,1.084285855293274,-1.7800613641738892,1.7751743793487549
1660273550274798600,0.943798583984375,1.1191051006317139,-1.7159204483032227,1.7354681491851807
1660273550276798500,0.945798583984375,1.2162326574325562,-1.5338826179504395,1.6267341375350952
1660273550278798600,0.947798583984375,1.3445143699645996,-1.32863187789917,1.4886785745620728
1660273550280798500,0.949798583984375,1.4037683010101318,-1.2412781715393066,1.4129313230514526
1660273550282799400,0.95179931640625,1.5063936710357666,-1.0775662660598755,1.253495454788208
1660273550284800300,0.95380029296875,1.5790866613388062,-0.8655960559844971,1.0867292881011963
1660273550286801200,0.95580126953125,1.6071864366531372,-0.7678576111793518,1.0128145217895508
1660273550288802000,0.957802001953125,1.6377297639846802,-0.5772676467895508,0.8539896011352539
1660273550290802000,0.959802001953125,1.6303993463516235,-0.4239404797554016,0.684779942035675
1660273550292801500,0.961801513671875,1.6169602870941162,-0.36224308609962463,0.6029239892959595
1660273550294801400,0.963801513671875,1.577254056930542,-0.26022860407829285,0.44776421785354614
1660273550296801500,0.965801513671875,1.513113260269165,-0.16249015927314758,0.29993483424186707
1660273550298801400,0.967801513671875,1.4819591045379639,-0.11789698898792267,0.23396138846874237
1660273550300801500,0.969801513671875,1.4147639274597168,-0.02321287989616394,0.09896016865968704
1660273550302800600,0.971800537109375,0.9749409556388855,0.684779942035675,-0.5760459303855896
1660273550304799000,0.973799072265625,0.9749409556388855,0.684779942035675,-0.5760459303855896
1660273550306798000,0.975798095703125,0.9230173826217651,0.778853178024292,-0.6627888083457947
1660273550308797700,0.977797607421875,0.9230173826217651,0.778853178024292,-0.6627888083457947
1660273550310796800,0.979796875,0.9230173826217651,0.778853178024292,-0.6627888083457947
1660273550312796000,0.9817958984375,0.9230173826217651,0.8888089060783386,-0.6627888083457947
1660273550314795000,0.983794921875,0.8185594081878662,1.016479730606079,-0.8399397134780884
1660273550316795100,0.985795166015625,0.7660250067710876,1.1557570695877075,-0.9236282706260681
1660273550318795000,0.987794921875,0.6615670323371887,1.4398094415664673,-1.10139000415802
1660273550320795100,0.989795166015625,0.5589417219161987,1.7189748287200928,-1.2589932680130005
1660273550322795000,0.991794921875,0.5119050741195679,1.8918496370315552,-1.341460108757019
1660273550324795100,0.993795166015625,0.4050036668777466,2.241264581680298,-1.5039502382278442
1660273550326795000,0.995794921875,0.2981022298336029,2.6316075325012207,-1.674992561340332
1660273550328795100,0.997795166015625,0.24495697021484375,2.8148670196533203,-1.7757853269577026
1660273550330795000,0.999794921875,0.16065755486488342,3.1899383068084717,-1.977981686592102
1660273550332795100,1.001795166015625,0.10201449692249298,3.578448534011841,-2.1587977409362793
1660273550334795000,1.003794921875,0.0861319974064827,3.7696495056152344,-2.252260208129883
1660273550336795600,1.005795654296875,0.06719517707824707,4.097073078155518,-2.420858860015869
1660273550338795500,1.00779541015625,0.06352998316287994,4.36096715927124,-2.5888469219207764
1660273550340795600,1.009795654296875,0.0659734457731247,4.468479156494141,-2.6652050018310547
1660273550342793000,1.01179296875,0.10567969083786011,4.781242370605469,-2.902831554412842
1660273550344793000,1.01379296875,0.11178833991289139,4.860654830932617,-2.9749138355255127
1660273550346793000,1.01579296875,0.12278391420841217,4.927238941192627,-3.0616567134857178
1660273550348793000,1.01779296875,0.13988813757896423,5.037805557250977,-3.2223141193389893
1660273550350793000,1.01979296875,0.15821409225463867,5.089729309082031,-3.3872478008270264
1660273550352792800,1.021792724609375,0.15943582355976105,5.084231376647949,-3.4691038131713867
1660273550354793000,1.02379296875,0.18509216606616974,5.006651401519775,-3.6554176807403564
1660273550356792300,1.025792236328125,0.27977627515792847,4.807509422302246,-3.8563923835754395
1660273550358792400,1.02779248046875,0.3481931984424591,4.676173686981201,-3.9486329555511475
1660273550360792300,1.029792236328125,0.5222898125648499,4.382347106933594,-4.120896816253662
1660273550362792400,1.03179248046875,0.7141014933586121,4.064086437225342,-4.237572193145752
1660273550364792300,1.033792236328125,0.8045095205307007,3.9034290313720703,-4.257730960845947
1660273550366792400,1.03579248046875,0.9828822016716003,3.5668420791625977,-4.241848468780518
1660273550368792300,1.037792236328125,1.1606439352035522,3.1453452110290527,-4.15327262878418
1660273550370792400,1.03979248046875,1.2376129627227783,2.900999069213867,-4.082412242889404
1660273550372792800,1.041792724609375,1.3836097717285156,2.372600555419922,-3.9046506881713867
1660273550374792700,1.043792724609375,1.5210545063018799,1.806328535079956,-3.687182664871216
1660273550376792800,1.045792724609375,1.588249683380127,1.49906325340271,-3.5668420791625977
1660273550378792700,1.047792724609375,1.6963727474212646,0.8796459436416626,-3.3157765865325928
1660273550380792800,1.049792724609375,1.8026633262634277,0.22296582162380219,-3.0445523262023926
1660273550382792000,1.0517919921875,1.9217820167541504,-0.7733554244041443,-2.6254987716674805
1660273550384791000,1.053791015625,1.9590448141098022,-1.1001683473587036,-2.48988676071167
1660273550386791200,1.055791259765625,2.0005836486816406,-1.4208725690841675,-2.3548855781555176
1660273550388791300,1.057791259765625,2.0390682220458984,-1.7336355447769165,-2.219273328781128
1660273550390791200,1.059791259765625,2.099543809890747,-2.339003086090088,-1.9468275308609009
1660273550392791000,1.061791015625,2.157576084136963,-2.892446994781494,-1.6878206729888916
1660273550394791000,1.063791015625,2.193617105484009,-3.1593949794769287,-1.5613715648651123
1660273550396790800,1.065790771484375,2.2400429248809814,-3.6529741287231445,-1.3145819902420044
1660273550398791000,1.067791015625,2.2846360206604004,-4.09279727935791,-1.0903944969177246
1660273550400790800,1.069790771484375,2.308459758758545,-4.292550086975098,-0.9828822016716003
1660273550402791700,1.071791748046875,2.3414463996887207,-4.670064926147461,-0.7837401032447815
1660273550404791800,1.073791748046875,2.367102861404419,-5.008484363555908,-0.59803706407547
1660273550406791700,1.075791748046875,2.384207010269165,-5.165476322174072,-0.5149593949317932
1660273550408791600,1.07779150390625,2.4043655395507812,-5.469076633453369,-0.3488040566444397
1660273550410791700,1.079791748046875,2.4245240688323975,-5.769622325897217,-0.19486601650714874
1660273550412791300,1.081791259765625,2.434298038482666,-5.9137864112854,-0.11911872029304504
1660273550414791400,1.08379150390625,2.453845739364624,-6.205169200897217,0.02382374368607998
1660273550416791800,1.085791748046875,2.4715607166290283,-6.491664886474609,0.16737708449363708
1660273550418791700,1.087791748046875,2.4831671714782715,-6.619335651397705,0.24068090319633484
1660273550420791600,1.08979150390625,2.4996604919433594,-6.742730617523193,0.485027015209198
1660273550422790700,1.091790771484375,2.328618288040161,-5.913175582885742,2.1368067264556885
1660273550424790000,1.0937900390625,2.328618288040161,-5.913175582885742,2.1368067264556885
1660273550426789000,1.0957890625,2.328618288040161,-5.913175582885742,2.1368067264556885
1660273550428788200,1.097788330078125,2.328618288040161,-5.913175582885742,2.1368067264556885
1660273550430788400,1.099788330078125,2.2931880950927734,-5.779396057128906,2.3689353466033936
1660273550432788000,1.1017880859375,2.213775634765625,-5.497176170349121,2.7898216247558594
1660273550434788000,1.1037880859375,2.1142046451568604,-5.237558841705322,3.1563408374786377
1660273550436788200,1.105788330078125,2.0647244453430176,-5.125770092010498,3.3237178325653076
1660273550438788000,1.1077880859375,1.9694294929504395,-4.928460597991943,3.6132678985595703
1660273550440788200,1.109788330078125,1.8655824661254883,-4.794681072235107,3.8423423767089844
1660273550442788900,1.111788818359375,1.8179349899291992,-4.756807804107666,3.9290852546691895
1660273550444789800,1.113789794921875,1.7201964855194092,-4.740925312042236,4.087910175323486
1660273550446789600,1.11578955078125,1.6200146675109863,-4.799568176269531,4.198476791381836
1660273550448789800,1.117789794921875,1.5680910348892212,-4.8533244132995605,4.238793849945068
1660273550450789600,1.11978955078125,1.470963478088379,-5.002986431121826,4.292550086975098
1660273550452790000,1.1217900390625,1.377501130104065,-5.170974254608154,4.295604228973389
1660273550454790000,1.123789794921875,1.330464482307434,-5.258327960968018,4.291328430175781
1660273550456790300,1.125790283203125,1.2516628503799438,-5.4281487464904785,4.252843856811523
1660273550458790400,1.127790283203125,1.1789699792861938,-5.583308219909668,4.177096366882324
1660273550460790300,1.129790283203125,1.1459832191467285,-5.6517252922058105,4.130059719085693
1660273550462789600,1.13178955078125,1.0476338863372803,-5.693264007568359,3.6364808082580566
1660273550464788700,1.133788818359375,1.0476338863372803,-5.693264007568359,3.6364808082580566
1660273550466787800,1.135787841796875,1.0561859607696533,-5.625458240509033,3.5417966842651367
1660273550468787000,1.137786865234375,1.0561859607696533,-5.625458240509033,3.5417966842651367
1660273550470787000,1.139787109375,1.0702359676361084,-5.549099922180176,3.442225694656372
1660273550472787500,1.141787353515625,1.0885618925094604,-5.470909118652344,3.353039264678955
1660273550474787300,1.143787353515625,1.149037480354309,-5.260160446166992,3.146566867828369
1660273550476788500,1.14578857421875,1.2278391122817993,-5.029864311218262,2.959642171859741
1660273550478788400,1.147788330078125,1.2699888944625854,-4.905247688293457,2.872899293899536
1660273550480788500,1.14978857421875,1.359786033630371,-4.654182434082031,2.722015619277954
1660273550482789400,1.151789306640625,1.4599679708480835,-4.458094596862793,2.5943446159362793
1660273550484790000,1.1537900390625,1.5180001258850098,-4.393953800201416,2.5442538261413574
1660273550486791000,1.155791015625,1.683544635772705,-4.251622200012207,2.445904493331909
1660273550488792000,1.1577919921875,1.9126191139221191,-4.072638511657715,2.3597724437713623
1660273550490792000,1.1597919921875,2.0219640731811523,-3.9773435592651367,2.3218986988067627
1660273550492792000,1.1617919921875,2.1844542026519775,-3.7751471996307373,2.2620339393615723
1660273550494792000,1.1637919921875,2.2547035217285156,-3.5949418544769287,2.2284364700317383
1660273550496791800,1.165791748046875,2.2687535285949707,-3.516751289367676,2.22477126121521
1660273550498792000,1.1677919921875,2.2571470737457275,-3.3738088607788086,2.2382102012634277
1660273550500791800,1.169791748046875,2.2040019035339355,-3.2363641262054443,2.2687535285949707
1660273550502791200,1.171791259765625,1.9309450387954712,-2.39825701713562,2.2602014541625977
1660273550504790300,1.173790283203125,1.8967366218566895,-2.280970811843872,2.244318962097168
1660273550506789400,1.175789306640625,1.8967366218566895,-2.280970811843872,2.244318962097168
1660273550508788500,1.17778857421875,1.8625280857086182,-2.171625852584839,2.2296581268310547
1660273550510787600,1.17978759765625,1.8625280857086182,-2.171625852584839,2.2296581268310547
1660273550512787000,1.181786865234375,1.8625280857086182,-2.171625852584839,2.2296581268310547
1660273550514786800,1.183786865234375,1.8252654075622559,-2.065946340560913,2.214386463165283
1660273550516786400,1.185786376953125,1.747685432434082,-1.8741345405578613,2.175291061401367
1660273550518785500,1.18778564453125,1.7092009782791138,-1.785559058189392,2.1563544273376465
1660273550520785700,1.18978564453125,1.6242907047271729,-1.6267341375350952,2.1056525707244873
1660273550522785500,1.19178564453125,1.550986886024475,-1.4917329549789429,2.052507162094116
1660273550524785700,1.19378564453125,1.4752395153045654,-1.3622294664382935,1.985922932624817
1660273550526785500,1.19578564453125,1.4391984939575195,-1.3115277290344238,1.9541579484939575
1660273550528785700,1.19778564453125,1.3720033168792725,-1.2082914113998413,1.8894062042236328
1660273550530785500,1.19978564453125,1.3115277290344238,-1.1105530261993408,1.8209892511367798
1660273550532785700,1.20178564453125,1.2803735733032227,-1.0684033632278442,1.7941112518310547
1660273550534785800,1.203785888671875,1.2247848510742188,-0.9877691268920898,1.7348573207855225
1660273550536786000,1.205785888671875,1.176526427268982,-0.9260717034339905,1.69148588180542
1660273550538786000,1.2077861328125,1.1533136367797852,-0.8900306820869446,1.6688838005065918
1660273550540786200,1.2097861328125,1.1136072874069214,-0.8130616545677185,1.6303993463516235
1660273550542783700,1.21178369140625,1.0592403411865234,-0.6988298296928406,1.595579981803894
1660273550544784000,1.213783935546875,1.0592403411865234,-0.6988298296928406,1.595579981803894
1660273550546784000,1.215783935546875,1.0305296182632446,-0.6359107494354248,1.5851953029632568
1660273550548783900,1.217783935546875,1.016479730606079,-0.5845980644226074,1.5796974897384644
1660273550550784000,1.219783935546875,1.0109820365905762,-0.5619960427284241,1.580308437347412
1660273550552784000,1.221783935546875,1.0054842233657837,-0.5180137157440186,1.5833626985549927
1660273550554784000,1.223783935546875,1.014647126197815,-0.4612032473087311,1.580308437347412
1660273550556783900,1.225783935546875,1.0231993198394775,-0.42210787534713745,1.5741997957229614
1660273550558784000,1.227783935546875,1.0433578491210938,-0.33475416898727417,1.568701982498169
1660273550560783400,1.229783447265625,1.0653489828109741,-0.23273965716362,1.5503759384155273
1660273550562783500,1.231783447265625,1.1166616678237915,-0.1765400618314743,1.5399912595748901
1660273550564783400,1.233783447265625,1.1716395616531372,-0.07757988572120667,1.538158655166626
1660273550566783500,1.235783447265625,1.2406673431396484,0.024434609338641167,1.5424346923828125
1660273550568783400,1.237783447265625,1.2791517972946167,0.06291911751031876,1.5528194904327393
1660273550570783500,1.239783447265625,1.3573426008224487,0.13316862285137177,1.5894713401794434
1660273550572783400,1.241783447265625,1.4385876655578613,0.18020524084568024,1.63467538356781
1660273550574783000,1.243782958984375,1.4874569177627563,0.20891591906547546,1.653001308441162
1660273550576783000,1.245783203125,1.5913039445877075,0.2718350291252136,1.6743816137313843
1660273550578782700,1.24778271484375,1.6438384056091309,0.31031954288482666,1.6762142181396484
1660273550580782800,1.249782958984375,1.757459282875061,0.394008070230484,1.6694947481155396
1660273550582782000,1.251781982421875,1.9932533502578735,0.5687155723571777,1.5735888481140137
1660273550584781000,1.253781005859375,1.9932533502578735,0.5687155723571777,1.5735888481140137
1660273550586781000,1.255781005859375,2.054950714111328,0.607810914516449,1.5302174091339111
1660273550588780800,1.25778076171875,2.171625852584839,0.7086036801338196,1.4062118530273438
1660273550590781000,1.259781005859375,2.2204952239990234,0.7373143434524536,1.3365731239318848
1660273550592781000,1.261781005859375,2.309070587158203,0.7922922372817993,1.1380419731140137
1660273550594781000,1.263781005859375,2.3689353466033936,0.6230825781822205,0.7922922372817993
1660273550596781000,1.265781005859375,2.3799309730529785,0.42210787534713745,0.5491678714752197
1660273550598781000,1.267781005859375,2.4049763679504395,0.006108652334660292,0.004886921960860491
1660273550600780500,1.269780517578125,2.4556782245635986,-0.3194825351238251,-0.5125159621238708
1660273550602781200,1.27178125,2.5173757076263428,-0.5216789245605469,-0.9346238374710083
1660273550604781300,1.27378125,2.529592990875244,-0.5619960427284241,-1.1301007270812988
1660273550606781200,1.27578125,2.4978280067443848,-0.6133087277412415,-1.4648548364639282
1660273550608781000,1.277781005859375,2.4391849040985107,-0.6426302194595337,-1.5986343622207642
1660273550610781200,1.27978125,2.282803535461426,-0.7941248416900635,-1.6566665172576904
1660273550612781300,1.28178125,2.0696115493774414,-0.7825183868408203,-1.674992561340332
1660273550614781200,1.28378125,1.9511035680770874,-0.6982190012931824,-1.6768250465393066
1660273550616781300,1.28578125,1.673770785331726,-0.394618958234787,-1.6591099500656128
1660273550618781200,1.28778125,1.38849675655365,-0.04642575979232788,-1.5546520948410034
1660273550620781600,1.289781494140625,1.2455542087554932,0.12095131725072861,-1.4611896276474
1660273550622781000,1.291781005859375,0.26572638750076294,1.7189748287200928,-0.6664539575576782
1660273550624780000,1.293780029296875,0.12889257073402405,2.001194477081299,-0.5791002511978149
1660273550626779100,1.295779052734375,0.12889257073402405,2.001194477081299,-0.5791002511978149
1660273550628778500,1.297778564453125,0.12889257073402405,2.001194477081299,-0.5791002511978149
1660273550630778600,1.299778564453125,-0.0012217304902151227,2.289522886276245,-0.5112941861152649
1660273550632779000,1.301779052734375,-0.13255776464939117,2.582127332687378,-0.44654250144958496
1660273550634779600,1.303779541015625,-0.37079519033432007,3.1471776962280273,-0.3628539443016052
1660273550636779500,1.305779541015625,-0.5803219676017761,3.6645805835723877,-0.29504790902137756
1660273550638780000,1.30777978515625,-0.6646214127540588,3.899763822555542,-0.26939156651496887
1660273550640779800,1.30977978515625,-0.8020660877227783,4.3059892654418945,-0.23457226157188416
1660273550642780700,1.31178076171875,-0.9138544201850891,4.606534957885742,-0.2021963894367218
1660273550644781600,1.313781494140625,-0.9560040831565857,4.715879917144775,-0.18936823308467865
1660273550646781700,1.31578173828125,-1.0311405658721924,4.859433174133301,-0.14844025671482086
1660273550648781600,1.317781494140625,-1.0800096988677979,4.90708065032959,-0.0959058403968811
1660273550650781400,1.319781494140625,-1.0922271013259888,4.904026031494141,-0.06352998316287994
1660273550652781600,1.321781494140625,-1.0977247953414917,4.852102756500244,0.0012217304902151227
1660273550654781400,1.323781494140625,-1.076344609260559,4.747033596038818,0.08002334833145142
1660273550656781600,1.325781494140625,-1.0519099235534668,4.670675754547119,0.12217304855585098
1660273550658781400,1.327781494140625,-0.9914342761039734,4.477642059326172,0.22113321721553802
1660273550660782000,1.329781982421875,-0.921795666217804,4.240015506744385,0.33719760179519653
1660273550662781200,1.33178125,-0.636521577835083,3.123964786529541,0.8570439219474792
1660273550664780300,1.3337802734375,-0.636521577835083,3.123964786529541,0.8570439219474792
1660273550666779400,1.335779296875,-0.636521577835083,3.123964786529541,0.8570439219474792
1660273550668778500,1.337778564453125,-0.636521577835083,3.123964786529541,0.8570439219474792
1660273550670778600,1.339778564453125,-0.5913175344467163,2.948035717010498,0.9395107626914978
1660273550672778800,1.34177880859375,-0.494189977645874,2.5943446159362793,1.1166616678237915
1660273550674778600,1.343778564453125,-0.4453207552433014,2.423302412033081,1.2040153741836548
1660273550676778500,1.345778564453125,-0.33658674359321594,2.098932981491089,1.3750576972961426
1660273550678778600,1.347778564453125,-0.21868975460529327,1.7989981174468994,1.5320500135421753
1660273550680778500,1.349778564453125,-0.15454891324043274,1.6578882932662964,1.6114624738693237
1660273550682779000,1.35177880859375,-0.024434609338641167,1.3903292417526245,1.7654005289077759
1660273550684779800,1.35377978515625,0.11850785464048386,1.141707181930542,1.9156733751296997
1660273550686780700,1.35578076171875,0.1966986060142517,1.017701506614685,1.9920315742492676
1660273550688781300,1.35778125,0.36102136969566345,0.770301103591919,2.1398608684539795
1660273550690781200,1.35978125,0.5216789245605469,0.5338962078094482,2.285857677459717
1660273550692780800,1.36178076171875,0.59803706407547,0.4105014503002167,2.356107234954834
1660273550694780700,1.36378076171875,0.7415903806686401,0.1661553531885147,2.49294114112854
1660273550696780800,1.36578076171875,0.8851437568664551,-0.08124507963657379,2.6206119060516357
1660273550698781000,1.367781005859375,0.9535606503486633,-0.21930062770843506,2.690861463546753
1660273550700780800,1.36978076171875,1.0824532508850098,-0.48869219422340393,2.822808265686035
1660273550702780200,1.3717802734375,1.4703526496887207,-1.6560556888580322,3.3677000999450684
1660273550704779300,1.373779296875,1.5161675214767456,-1.7873916625976562,3.4373388290405273
1660273550706778400,1.3757783203125,1.55892813205719,-1.9217820167541504,3.5051448345184326
1660273550708777500,1.377777587890625,1.55892813205719,-1.9217820167541504,3.5051448345184326
1660273550710776600,1.379776611328125,1.55892813205719,-1.9217820167541504,3.5051448345184326
1660273550712776200,1.381776123046875,1.5961909294128418,-2.029905319213867,3.5741724967956543
1660273550714776300,1.3837763671875,1.6517796516418457,-2.1514673233032227,3.6480872631073
1660273550716776200,1.385776123046875,1.6774359941482544,-2.2430970668792725,3.72078013420105
1660273550718776300,1.3877763671875,1.7507398128509521,-2.41719388961792,3.8625009059906006
1660273550720776200,1.389776123046875,1.8234328031539917,-2.5393667221069336,3.99200439453125
1660273550722776300,1.3917763671875,1.8588629961013794,-2.596788167953491,4.041484355926514
1660273550724776200,1.393776123046875,1.9297232627868652,-2.6309967041015625,4.141055583953857
1660273550726776300,1.3957763671875,2.0115792751312256,-2.626720666885376,4.209472179412842
1660273550728776200,1.397776123046875,2.0445659160614014,-2.6053402423858643,4.24429178237915
1660273550730776300,1.3997763671875,2.1203131675720215,-2.546086311340332,4.304767608642578
1660273550732776200,1.401776123046875,2.188119411468506,-2.4697282314300537,4.312097549438477
1660273550734776300,1.4037763671875,2.2149972915649414,-2.4446825981140137,4.229630947113037
1660273550736776400,1.4057763671875,2.2009475231170654,-2.417804718017578,3.82157301902771
1660273550738776600,1.407776611328125,2.191173553466797,-2.450791358947754,3.4379496574401855
1660273550740776700,1.409776611328125,2.2003366947174072,-2.461786985397339,3.2681291103363037
1660273550742774000,1.41177392578125,2.2968533039093018,-2.4355196952819824,2.7928760051727295
1660273550744774100,1.413774169921875,2.3298399448394775,-2.428800106048584,2.646879196166992
1660273550746774300,1.415774169921875,2.3603832721710205,-2.414750337600708,2.4941627979278564
1660273550748774400,1.4177744140625,2.4379632472991943,-2.4385740756988525,2.166738986968994
1660273550750774500,1.4197744140625,2.495995283126831,-2.481945514678955,1.8368717432022095
1660273550752775200,1.421775146484375,2.5314254760742188,-2.5082128047943115,1.6780468225479126
1660273550754775300,1.423775390625,2.623666286468506,-2.546086311340332,1.3744467496871948
1660273550756775200,1.425775146484375,2.7403414249420166,-2.5894577503204346,1.1282681226730347
1660273550758775300,1.427775390625,2.8124237060546875,-2.607783794403076,1.0201449394226074
1660273550760775200,1.429775146484375,2.9743027687072754,-2.640770435333252,0.8313875794410706
1660273550762774800,1.43177490234375,3.1282408237457275,-2.6981918811798096,0.6481280326843262
1660273550764774700,1.433774658203125,3.210707664489746,-2.7421741485595703,0.5742133259773254
1660273550766774800,1.43577490234375,3.357926368713379,-2.8759536743164062,0.45265114307403564
1660273550768774700,1.437774658203125,3.4855971336364746,-3.0836477279663086,0.2528982162475586
1660273550770774800,1.43977490234375,3.554013967514038,-3.207653284072876,0.15821409225463867
1660273550772775000,1.44177490234375,3.6896259784698486,-3.486207962036133,-0.001832595793530345
1660273550774774800,1.44377490234375,3.7946949005126953,-3.776979923248291,-0.10262536257505417
1660273550776775000,1.44577490234375,3.8319575786590576,-3.910759210586548,-0.13500121235847473
1660273550778774800,1.44777490234375,3.8869354724884033,-4.164268493652344,-0.16004669666290283
1660273550780775000,1.44977490234375,3.899763822555542,-4.37074089050293,-0.15760323405265808
1660273550782774000,1.45177392578125,3.82157301902771,-4.6328020095825195,-0.08185594528913498
1660273550784773000,1.453773193359375,3.82157301902771,-4.6328020095825195,-0.08185594528913498
1660273550786773200,1.455773193359375,3.7836992740631104,-4.665788650512695,-0.05375614017248154
1660273550788773000,1.457773193359375,3.7415497303009033,-4.689001560211182,-0.02076941914856434
1660273550790773200,1.459773193359375,3.657250165939331,-4.706105709075928,0.04337143152952194
1660273550792773000,1.461773193359375,3.55340313911438,-4.699386119842529,0.11423180252313614
1660273550794773200,1.463773193359375,3.497814416885376,-4.69572114944458,0.15393804013729095
1660273550796773000,1.465773193359375,3.3854150772094727,-4.669454097747803,0.23151792585849762
1660273550798773200,1.467773193359375,3.2626311779022217,-4.627914905548096,0.31642818450927734
1660273550800773000,1.469773193359375,3.2039883136749268,-4.602869510650635,0.3549126982688904
1660273550802774500,1.4717744140625,3.0891456604003906,-4.55033540725708,0.4434881806373596
1660273550804774400,1.4737744140625,2.973081111907959,-4.493524551391602,0.5345070958137512
1660273550806774300,1.475774169921875,2.9107728004455566,-4.458705425262451,0.5791002511978149
1660273550808774400,1.4777744140625,2.797762870788574,-4.384180068969727,0.6627888083457947
1660273550810774300,1.479774169921875,2.691472291946411,-4.308432579040527,0.7483099102973938
1660273550812774000,1.48177392578125,2.6371052265167236,-4.26628303527832,0.7874053120613098
1660273550814773800,1.483773681640625,2.5118777751922607,-4.052480220794678,0.779464066028595
1660273550816774000,1.48577392578125,2.4019222259521484,-3.7971384525299072,0.7617489695549011
1660273550818774000,1.48777392578125,2.3457224369049072,-3.6670241355895996,0.7586946487426758
1660273550820774000,1.48977392578125,2.2492058277130127,-3.403130292892456,0.769690215587616
1660273550822773500,1.4917734375,1.9675970077514648,-2.101987361907959,0.7751879692077637
1660273550824772600,1.493772705078125,1.9675970077514648,-2.101987361907959,0.7751879692077637
1660273550826772000,1.49577197265625,1.9675970077514648,-2.101987361907959,0.7751879692077637
1660273550828771000,1.49777099609375,1.9675970077514648,-2.101987361907959,0.7751879692077637
1660273550830771000,1.49977099609375,1.9315558671951294,-1.86497163772583,0.769690215587616
1660273550832770800,1.501770751953125,1.8637498617172241,-1.368949055671692,0.7580837607383728
1660273550834771000,1.50377099609375,1.8112154006958008,-0.8680394887924194,0.7574729323387146
1660273550836770800,1.505770751953125,1.7873916625976562,-0.6023131608963013,0.7580837607383728
1660273550838771000,1.50777099609375,1.7336355447769165,-0.08857546001672745,0.7831292152404785
1660273550840770800,1.509770751953125,1.6920967102050781,0.4190535545349121,0.827111542224884
1660273550842771700,1.511771728515625,1.6756033897399902,0.6640105247497559,0.8552113175392151
1660273550844772600,1.513772705078125,1.633453607559204,1.1142182350158691,0.9327912330627441
1660273550846772500,1.5157724609375,1.5986343622207642,1.5051720142364502,1.0299187898635864
1660273550848772600,1.517772705078125,1.5900822877883911,1.6725490093231201,1.0824532508850098
1660273550850772500,1.5197724609375,1.5546520948410034,1.9529361724853516,1.2003501653671265
1660273550852772600,1.521772705078125,1.5234979391098022,2.1484131813049316,1.33168625831604
1660273550854772700,1.523772705078125,1.5070046186447144,2.2119431495666504,1.4031574726104736
1660273550856772600,1.525772705078125,1.4618005752563477,2.277916431427002,1.5515977144241333
1660273550858772700,1.527772705078125,1.416596531867981,2.3078489303588867,1.6762142181396484
1660273550860772900,1.52977294921875,1.395827054977417,2.306016206741333,1.7299703359603882
1660273550862771500,1.531771484375,1.1954632997512817,2.0384573936462402,1.9694294929504395
1660273550864770600,1.5337705078125,1.1954632997512817,2.0384573936462402,1.9694294929504395
1660273550866769700,1.535769775390625,1.1954632997512817,2.0384573936462402,1.9694294929504395
1660273550868768800,1.537768798828125,1.1954632997512817,2.0384573936462402,1.9694294929504395
1660273550870769000,1.539768798828125,1.1722503900527954,1.9834794998168945,1.9712620973587036
1660273550872768800,1.541768798828125,1.1508700847625732,1.9248363971710205,1.974927306175232
1660273550874769000,1.543768798828125,1.1117748022079468,1.8026633262634277,1.9627100229263306
1660273550876768800,1.545768798828125,1.0696250200271606,1.6786576509475708,1.9370536804199219
1660273550878768600,1.5477685546875,1.0525208711624146,1.6187928915023804,1.9144517183303833
1660273550880768800,1.549768798828125,1.027475357055664,1.4972307682037354,1.8680258989334106
1660273550882769400,1.551769287109375,0.9950994849205017,1.3738359212875366,1.8093829154968262
1660273550884770300,1.553770263671875,0.9847147464752197,1.3084733486175537,1.7751743793487549
1660273550886771200,1.555771240234375,0.9669997096061707,1.1704177856445312,1.711033582687378
1660273550888772000,1.557772216796875,0.9443976879119873,1.0396926403045654,1.6407840251922607
1660273550890772000,1.55977197265625,0.9370672702789307,0.9712757468223572,1.6059647798538208
1660273550892772000,1.561772216796875,0.921795666217804,0.837496280670166,1.5302174091339111
1660273550894772000,1.56377197265625,0.902247965335846,0.6914994716644287,1.4569135904312134
1660273550896772000,1.565772216796875,0.8881980776786804,0.6224716901779175,1.4196507930755615
1660273550898772200,1.567772216796875,0.8674286603927612,0.49296826124191284,1.3506230115890503
1660273550900772000,1.569772216796875,0.8429940342903137,0.36651915311813354,1.2822061777114868
1660273550902771500,1.571771484375,0.7483099102973938,-0.00855211354792118,1.0891727209091187
1660273550904770600,1.5737705078125,0.7379252314567566,-0.036041051149368286,1.074512004852295
1660273550906769700,1.575769775390625,0.7287622094154358,-0.06230825558304787,1.0592403411865234
1660273550908768800,1.577768798828125,0.7287622094154358,-0.06230825558304787,1.0592403411865234
1660273550910767900,1.579767822265625,0.7287622094154358,-0.06230825558304787,1.0592403411865234
1660273550912767000,1.58176708984375,0.7287622094154358,-0.06230825558304787,1.0592403411865234
1660273550914767000,1.58376708984375,0.7183775305747986,-0.08368854224681854,1.0427470207214355
1660273550916767000,1.58576708984375,0.7024950385093689,-0.11484266817569733,1.016479730606079
1660273550918767000,1.58776708984375,0.6914994716644287,-0.13011430203914642,0.9944885969161987
1660273550920766700,1.5897666015625,0.6866125464439392,-0.14233160018920898,0.9853256344795227
1660273550922777600,1.591777587890625,0.6811147332191467,-0.1466076523065567,0.9651671051979065
1660273550924778500,1.593778564453125,0.6792821288108826,-0.14782938361167908,0.949895441532135
1660273550926779100,1.595779052734375,0.6780604124069214,-0.14233160018920898,0.9395107626914978
1660273550928779500,1.597779541015625,0.6762278079986572,-0.13988813757896423,0.9279043078422546
1660273550930779600,1.599779541015625,0.6786713004112244,-0.1313360333442688,0.9181304574012756
1660273550932779800,1.60177978515625,0.6792821288108826,-0.1264491081237793,0.911410927772522
1660273550934780200,1.6037802734375,0.6866125464439392,-0.11850785464048386,0.9040805697441101
1660273550936780300,1.6057802734375,0.6927211880683899,-0.11423180252313614,0.9040805697441101
1660273550938780400,1.607780517578125,0.6963863968849182,-0.11545353382825851,0.9046914577484131
1660273550940780300,1.6097802734375,0.7006624341011047,-0.11484266817569733,0.9150761365890503
1660273550942777900,1.61177783203125,0.7006624341011047,-0.12095131725072861,0.9431759119033813
1660273550944777700,1.61377783203125,0.7006624341011047,-0.12095131725072861,0.9431759119033813
1660273550946777900,1.61577783203125,0.6994407176971436,-0.12889257073402405,0.96883225440979
1660273550948777700,1.61777783203125,0.6982190012931824,-0.13500121235847473,0.9999864101409912
1660273550950777900,1.61977783203125,0.6994407176971436,-0.14294247329235077,1.018923282623291
1660273550952777700,1.62177783203125,0.7043276429176331,-0.15332718193531036,1.053742527961731
1660273550954777900,1.62377783203125,0.7086036801338196,-0.16371189057826996,1.0958921909332275
1660273550956777700,1.62577783203125,0.7141014933586121,-0.16004669666290283,1.1136072874069214
1660273550958777900,1.62777783203125,0.7232644557952881,-0.14966198801994324,1.1508700847625732
1660273550960777700,1.62977783203125,0.7354817390441895,-0.11728613078594208,1.1905763149261475
1660273550962777000,1.631777099609375,0.7422012686729431,-0.0959058403968811,1.2113457918167114
1660273550964777000,1.63377685546875,0.7568620443344116,-0.039706241339445114,1.246165156364441
1660273550966777000,1.635777099609375,0.7684684991836548,0.036041051149368286,1.273043155670166
1660273550968777000,1.63777685546875,0.7751879692077637,0.08307767659425735,1.282817006111145
1660273550970777000,1.639777099609375,0.7861835956573486,0.18631389737129211,1.2980886697769165
1660273550972777000,1.64177685546875,0.7910705208778381,0.31031954288482666,1.302364706993103
1660273550974777000,1.643777099609375,0.789237916469574,0.3787364661693573,1.2974777221679688
1660273550976777200,1.645777099609375,0.7837401032447815,0.5320636034011841,1.2883148193359375
1660273550978777000,1.647777099609375,0.7678576111793518,0.6914994716644287,1.264491081237793
1660273550980777700,1.64977783203125,0.7562511563301086,0.7757988572120667,1.2510520219802856
1660273550982776800,1.65177685546875,0.6890559792518616,1.130711555480957,1.1673635244369507
1660273550984776000,1.65377587890625,0.6890559792518616,1.130711555480957,1.1673635244369507
1660273550986776000,1.655776123046875,0.6640105247497559,1.2217304706573486,1.1386528015136719
1660273550988776000,1.65777587890625,0.6151412725448608,1.4043792486190796,1.0824532508850098
1660273550990775800,1.65977587890625,0.5613851547241211,1.5790866613388062,1.0183123350143433
1660273550992776000,1.66177587890625,0.5351179838180542,1.6633861064910889,0.988990843296051
1660273550994775800,1.66377587890625,0.47830748558044434,1.8234328031539917,0.9224064946174622
1660273550996776000,1.66577587890625,0.4245513379573822,1.955379605293274,0.8582656979560852
1660273550998775800,1.66777587890625,0.3982841372489929,2.0091357231140137,0.8332201838493347
1660273551000775700,1.669775634765625,0.3579670190811157,2.0861048698425293,0.788016140460968
1660273551002776600,1.671776611328125,0.32131510972976685,2.1319196224212646,0.7525860071182251
1660273551004776700,1.673776611328125,0.3078760802745819,2.1484131813049316,0.7342600226402283
1660273551006776800,1.67577685546875,0.28955012559890747,2.1704041957855225,0.7086036801338196
1660273551008776700,1.677776611328125,0.27977627515792847,2.180788993835449,0.6866125464439392
1660273551010776800,1.67977685546875,0.2791654169559479,2.1765129566192627,0.6798930168151855
1660273551012776400,1.6817763671875,0.2822197377681732,2.1569652557373047,0.675006091594696
1660273551014776600,1.683776611328125,0.2926044464111328,2.1172590255737305,0.675616979598999
1660273551016776700,1.685776611328125,0.2981022298336029,2.0861048698425293,0.6811147332191467
1660273551018776600,1.687776611328125,0.3182607889175415,2.023796558380127,0.6927211880683899
1660273551020776700,1.689776611328125,0.33658674359321594,1.9462167024612427,0.7110471725463867
1660273551022776300,1.6917763671875,0.42271876335144043,1.6493362188339233,0.7867944240570068
1660273551024775400,1.693775390625,0.4386012554168701,1.5937473773956299,0.79840087890625
1660273551026774500,1.6957744140625,0.4386012554168701,1.5937473773956299,0.79840087890625
1660273551028773600,1.697773681640625,0.4386012554168701,1.5937473773956299,0.79840087890625
1660273551030773500,1.6997734375,0.4544837474822998,1.5338826179504395,0.8118399381637573
1660273551032773600,1.701773681640625,0.48747047781944275,1.4220943450927734,0.836885392665863
1660273551034773500,1.7037734375,0.4990769028663635,1.36650550365448,0.8460483551025391
1660273551036773600,1.705773681640625,0.5253441333770752,1.2614367008209229,0.8649851679801941
1660273551038773500,1.7077734375,0.5424483418464661,1.1661417484283447,0.8802568316459656
1660273551040772900,1.70977294921875,0.5467243790626526,1.1215485334396362,0.8833111524581909
1660273551042773800,1.711773681640625,0.5564982295036316,1.0415252447128296,0.8924741148948669
1660273551044774700,1.713774658203125,0.5552765130996704,0.969443142414093,0.8985827565193176
1660273551046774500,1.7157744140625,0.5540547966957092,0.9376781582832336,0.8998045325279236
1660273551048774700,1.717774658203125,0.5412266254425049,0.8863654732704163,0.902247965335846
1660273551050774500,1.7197744140625,0.5204572081565857,0.8521569967269897,0.902247965335846
1660273551052774700,1.721774658203125,0.5094616413116455,0.8460483551025391,0.8985827565193176
1660273551054774800,1.72377490234375,0.4807509481906891,0.8521569967269897,0.8869763612747192
1660273551056774700,1.725774658203125,0.4447098970413208,0.9010262489318848,0.8741481900215149
1660273551058774800,1.72777490234375,0.42210787534713745,0.9431759119033813,0.8655960559844971
1660273551060775000,1.72977490234375,0.3738495409488678,1.0751228332519531,0.8338310718536377
1660273551062774000,1.73177392578125,0.21380282938480377,1.6108516454696655,0.8924741148948669
1660273551064773000,1.733773193359375,0.21380282938480377,1.6108516454696655,0.8924741148948669
1660273551066772200,1.735772216796875,0.21380282938480377,1.6108516454696655,0.8924741148948669
1660273551068771300,1.737771240234375,0.20891591906547546,1.660942554473877,0.9236282706260681
1660273551070771200,1.739771240234375,0.20891591906547546,1.660942554473877,0.9236282706260681
1660273551072771300,1.741771240234375,0.21563543379306793,1.7318029403686523,0.9896016716957092
1660273551074771500,1.743771484375,0.23640485107898712,1.7739527225494385,1.0616837739944458
1660273551076771300,1.745771240234375,0.24862214922904968,1.7892242670059204,1.0946705341339111
1660273551078771500,1.747771484375,0.27122417092323303,1.816102385520935,1.1612548828125
1660273551080771300,1.749771240234375,0.28955012559890747,1.845423936843872,1.2223412990570068
1660273551082772200,1.751772216796875,0.30482175946235657,1.8570303916931152,1.2504411935806274
1660273551084773000,1.753773193359375,0.32986724376678467,1.8771889209747314,1.301142930984497
1660273551086774000,1.75577392578125,0.3549126982688904,1.881464958190918,1.3463469743728638
1660273551088775000,1.75777490234375,0.36651915311813354,1.8759671449661255,1.3671164512634277
1660273551090775000,1.759775146484375,0.384845107793808,1.8582520484924316,1.3933836221694946
1660273551092775200,1.761775146484375,0.3952298164367676,1.8301522731781006,1.4049900770187378
1660273551094775000,1.763775146484375,0.3982841372489929,1.8136589527130127,1.406822681427002
1660273551096775200,1.765775146484375,0.39767327904701233,1.7696765661239624,1.395827054977417
1660273551098775000,1.767775146484375,0.38667771220207214,1.712866187095642,1.376279354095459
1660273551100775200,1.769775146484375,0.37629300355911255,1.6792685985565186,1.359175205230713
1660273551102774300,1.771774169921875,0.23396138846874237,1.3017538785934448,1.0751228332519531
1660273551104773400,1.7737734375,0.23396138846874237,1.3017538785934448,1.0751228332519531
1660273551106772500,1.7757724609375,0.21441370248794556,1.2577714920043945,1.027475357055664
1660273551108771600,1.777771484375,0.21441370248794556,1.2577714920043945,1.027475357055664
1660273551110770700,1.779770751953125,0.21441370248794556,1.2577714920043945,1.027475357055664
1660273551112770600,1.7817705078125,0.19303341209888458,1.214400053024292,0.9828822016716003
1660273551114770400,1.7837705078125,0.17287486791610718,1.1704177856445312,0.9388998746871948
1660273551116770600,1.7857705078125,0.1514945775270462,1.1270463466644287,0.8900306820869446
1660273551118770400,1.7877705078125,0.10690141469240189,1.047023057937622,0.7965682744979858
1660273551120770600,1.7897705078125,0.06658431142568588,0.9731083512306213,0.7006624341011047
1660273551122770400,1.7917705078125,0.045204028487205505,0.9382890462875366,0.6536257863044739
1660273551124770600,1.7937705078125,-0.0012217304902151227,0.8765916228294373,0.5632177591323853
1660273551126770400,1.7957705078125,-0.03848451003432274,0.8197811841964722,0.47769662737846375
1660273551128770800,1.797770751953125,-0.05742133408784866,0.7959573864936829,0.43615779280662537
1660273551130771000,1.79977099609375,-0.0861319974064827,0.7531968355178833,0.3628539443016052
1660273551132771300,1.801771240234375,-0.10506882518529892,0.7141014933586121,0.2981022298336029
1660273551134771500,1.803771484375,-0.10995574295520782,0.7018841505050659,0.26939156651496887
1660273551136771600,1.805771484375,-0.11972958594560623,0.675006091594696,0.2174680233001709
1660273551138771700,1.807771728515625,-0.11911872029304504,0.6597344875335693,0.17837265133857727
1660273551140771800,1.809771728515625,-0.11545353382825851,0.6548475623130798,0.16493362188339233
1660273551142769200,1.81176904296875,-0.10262536257505417,0.6511823534965515,0.12950342893600464
1660273551144769300,1.813769287109375,-0.09651670604944229,0.6542366743087769,0.11972958594560623
1660273551146769200,1.81576904296875,-0.09162978827953339,0.6585127115249634,0.11545353382825851
1660273551148769300,1.817769287109375,-0.08246681094169617,0.66584312915802,0.10934487730264664
1660273551150769200,1.81976904296875,-0.08002334833145142,0.6768386960029602,0.10751228034496307
1660273551152770300,1.821770263671875,-0.08429940044879913,0.6823364496231079,0.11056660860776901
1660273551154770200,1.823770263671875,-0.08735372871160507,0.6951646208763123,0.11301007121801376
1660273551156770300,1.825770263671875,-0.09407325088977814,0.7086036801338196,0.12278391420841217
1660273551158770200,1.827770263671875,-0.1007927656173706,0.7147123217582703,0.1270599663257599
1660273551160770300,1.829770263671875,-0.11239920556545258,0.7250970602035522,0.13805554807186127
1660273551162770200,1.831770263671875,-0.1270599663257599,0.7342600226402283,0.14966198801994324
1660273551164770300,1.833770263671875,-0.13255776464939117,0.7342600226402283,0.15515977144241333
1660273551166770200,1.835770263671875,-0.14538592100143433,0.7348709106445312,0.15943582355976105
1660273551168770300,1.837770263671875,-0.152105450630188,0.7238753437995911,0.15454891324043274
1660273551170770200,1.839770263671875,-0.15454891324043274,0.7153232097625732,0.14538592100143433
1660273551172770300,1.841770263671875,-0.1563815027475357,0.6908885836601257,0.1160643994808197
1660273551174770200,1.843770263671875,-0.15332718193531036,0.6524040699005127,0.06475171446800232
1660273551176770300,1.845770263671875,-0.1472185254096985,0.6322455406188965,0.029932396486401558
1660273551178770400,1.8477705078125,-0.13561208546161652,0.578489363193512,-0.05925392732024193
1660273551180770300,1.849770263671875,-0.11911872029304504,0.5125159621238708,-0.17898350954055786
1660273551182769700,1.851769775390625,-0.06536258012056351,0.35613444447517395,-0.5002986192703247
1660273551184768800,1.853768798828125,-0.06536258012056351,0.35613444447517395,-0.5002986192703247
1660273551186768600,1.8557685546875,-0.05253441259264946,0.313373863697052,-0.5937610268592834
1660273551188768800,1.857768798828125,-0.03787364438176155,0.26450464129447937,-0.6927211880683899
1660273551190768600,1.8597685546875,-0.00366519158706069,0.1661553531885147,-0.8998045325279236
1660273551192768800,1.861768798828125,0.025045474991202354,0.05497787147760391,-1.1160508394241333
1660273551194768600,1.8637685546875,0.03848451003432274,-0.0024434609804302454,-1.225395679473877
1660273551196768500,1.8657685546875,0.06291911751031876,-0.12095131725072861,-1.444696307182312
1660273551198768600,1.8677685546875,0.08796459436416626,-0.242513507604599,-1.662164330482483
1660273551200768500,1.8697685546875,0.09651670604944229,-0.303600013256073,-1.7702875137329102
1660273551202769400,1.871769287109375,0.10812314599752426,-0.41111230850219727,-1.968207836151123
1660273551204769300,1.873769287109375,0.11178833991289139,-0.49846604466438293,-2.1533000469207764
1660273551206769400,1.875769287109375,0.10995574295520782,-0.5375614166259766,-2.2394320964813232
1660273551208769500,1.87776953125,0.09896016865968704,-0.6053674817085266,-2.4025330543518066
1660273551210769400,1.879769287109375,0.08429940044879913,-0.6585127115249634,-2.5613579750061035
1660273551212769000,1.88176904296875,0.0708603709936142,-0.6817256212234497,-2.6340508460998535
1660273551214769200,1.88376904296875,0.0507018156349659,-0.7134906053543091,-2.777604341506958
1660273551216769000,1.88576904296875,0.01466076634824276,-0.7305948138237,-2.911383867263794
1660273551218769200,1.88776904296875,-0.006719517521560192,-0.7330383062362671,-2.972470283508301
1660273551220769000,1.88976904296875,-0.0555887371301651,-0.7232644557952881,-3.0946433544158936
1660273551222768400,1.891768310546875,-0.26511552929878235,-0.5552765130996704,-3.503922939300537
1660273551224767500,1.893767578125,-0.26511552929878235,-0.5552765130996704,-3.503922939300537
1660273551226766600,1.8957666015625,-0.26511552929878235,-0.5552765130996704,-3.503922939300537
1660273551228765700,1.897765625,-0.26511552929878235,-0.5552765130996704,-3.503922939300537
1660273551230765600,1.899765625,-0.3023782968521118,-0.5229006409645081,-3.55951189994812
1660273551232765700,1.901765625,-0.37690386176109314,-0.4593706727027893,-3.6615262031555176
1660273551234765600,1.903765625,-0.4489859640598297,-0.3927863538265228,-3.7555994987487793
1660273551236765700,1.905765625,-0.48685958981513977,-0.3597996234893799,-3.7983601093292236
1660273551238765600,1.907765625,-0.5534439086914062,-0.294437050819397,-3.869220495223999
1660273551240765400,1.909765380859375,-0.6139195561408997,-0.23090706765651703,-3.922976493835449
1660273551242766800,1.911766845703125,-0.6359107494354248,-0.20036379992961884,-3.9468002319335938
1660273551244767700,1.913767822265625,-0.6786713004112244,-0.1313360333442688,-3.977954387664795
1660273551246767600,1.915767578125,-0.7116580009460449,-0.059864792972803116,-3.992615222930908
1660273551248767500,1.917767578125,-0.7214318513870239,-0.021380282938480377,-3.99505877494812
1660273551250767600,1.919767578125,-0.7391469478607178,0.06108652427792549,-3.984063148498535
1660273551252767500,1.921767578125,-0.7452555894851685,0.13805554807186127,-3.9516873359680176
1660273551254767600,1.923767578125,-0.7440338730812073,0.1765400618314743,-3.927863597869873
1660273551256767500,1.925767578125,-0.7440338730812073,0.2480112910270691,-3.871663808822632
1660273551258767600,1.927767578125,-0.7409795522689819,0.3225368559360504,-3.8014144897460938
1660273551260767500,1.929767578125,-0.7379252314567566,0.36651915311813354,-3.7610974311828613
1660273551262766800,1.931766845703125,-0.7067710757255554,0.8588765263557434,-3.4104607105255127
1660273551264766000,1.933765869140625,-0.7067710757255554,0.8588765263557434,-3.4104607105255127
1660273551266765000,1.93576513671875,-0.7067710757255554,0.8588765263557434,-3.4104607105255127
1660273551268764200,1.93776416015625,-0.7067710757255554,0.8588765263557434,-3.4104607105255127
1660273551270764000,1.939763916015625,-0.6951646208763123,0.9486737251281738,-3.3628132343292236
1660273551272763600,1.941763671875,-0.6811147332191467,1.0506882667541504,-3.3102786540985107
1660273551274763800,1.943763671875,-0.6475171446800232,1.2846496105194092,-3.2088751792907715
1660273551276763600,1.945763671875,-0.6133087277412415,1.5570955276489258,-3.101362943649292
1660273551278763800,1.947763671875,-0.5943718552589417,1.7116444110870361,-3.048217535018921
1660273551280763600,1.949763671875,-0.5577199459075928,2.032959461212158,-2.9413161277770996
1660273551282764500,1.9517646484375,-0.5271766781806946,2.3689353466033936,-2.847242832183838
1660273551284765400,1.953765380859375,-0.5174028873443604,2.534479856491089,-2.8020389080047607
1660273551286766300,1.955766357421875,-0.5015203952789307,2.869234085083008,-2.7146852016448975
1660273551288767200,1.957767333984375,-0.5009095072746277,3.1978795528411865,-2.635272741317749
1660273551290768000,1.959767822265625,-0.504574716091156,3.3646457195281982,-2.5919013023376465
1660273551292768000,1.96176806640625,-0.5155702829360962,3.7036759853363037,-2.5021040439605713
1660273551294767900,1.963767822265625,-0.5406157374382019,4.048203945159912,-2.4043655395507812
1660273551296768000,1.96576806640625,-0.5607742667198181,4.218024730682373,-2.3518311977386475
1660273551298768000,1.967767822265625,-0.6065891981124878,4.552167892456055,-2.2375993728637695
1660273551300768000,1.96976806640625,-0.6695083379745483,4.858211517333984,-2.1142046451568604
1660273551302766600,1.9717666015625,-0.9590584635734558,4.980384349822998,-1.7525724172592163
1660273551304765700,1.973765625,-0.988379955291748,4.751920700073242,-1.7599027156829834
1660273551306764800,1.975764892578125,-1.0207557678222656,4.480085849761963,-1.7818939685821533
1660273551308764200,1.97776416015625,-1.0207557678222656,4.480085849761963,-1.7818939685821533
1660273551310763300,1.97976318359375,-1.0207557678222656,4.480085849761963,-1.7818939685821533
1660273551312763100,1.98176318359375,-1.0207557678222656,4.480085849761963,-1.7818939685821533
1660273551314763300,1.98376318359375,-1.0519099235534668,4.1715989112854,-1.816102385520935
1660273551316763100,1.98576318359375,-1.103833556175232,3.48071026802063,-1.9022343158721924
1660273551318763300,1.98776318359375,-1.1362093687057495,2.760499954223633,-2.012190103530884
1660273551320763100,1.98976318359375,-1.147204875946045,2.4190263748168945,-2.072054862976074
1660273551322763000,1.991762939453125,-1.1459832191467285,1.7928894758224487,-2.183232307434082
1660273551324763100,1.99376318359375,-1.112385630607605,1.2681562900543213,-2.286468505859375
1660273551326763000,1.995762939453125,-1.086118459701538,1.0378600358963013,-2.331061840057373
1660273551328763100,1.99776318359375,-1.0042624473571777,0.6481280326843262,-2.411695957183838
1660273551330763300,1.99976318359375,-0.9028588533401489,0.342695415019989,-2.4666738510131836
1660273551332763600,2.001763671875,-0.8460483551025391,0.2272418737411499,-2.4862215518951416
1660273551334763800,2.003763671875,-0.7293730974197388,0.07452555745840073,-2.5088236331939697
1660273551336764000,2.005763916015625,-0.6139195561408997,0.022602014243602753,-2.5118777751922607
1660273551338764000,2.007763916015625,-0.5589417219161987,0.031154127791523933,-2.5082128047943115
1660273551340764200,2.00976416015625,-0.455705463886261,0.10934487730264664,-2.4947736263275146
1660273551342761700,2.01176171875,-0.34574973583221436,0.3341432809829712,-2.4410176277160645
1660273551344761600,2.01376171875,-0.34574973583221436,0.3341432809829712,-2.4410176277160645
1660273551346761700,2.01576171875,-0.2785545587539673,0.5619960427284241,-2.3915374279022217
1660273551348761000,2.017760986328125,-0.20463985204696655,0.8484918475151062,-2.3273966312408447
1660273551350761200,2.01976123046875,-0.16310101747512817,1.004873275756836,-2.288912057876587
1660273551352761000,2.021760986328125,-0.06658431142568588,1.3432927131652832,-2.2015583515167236
1660273551354761200,2.02376123046875,0.03481931984424591,1.690264105796814,-2.099543809890747
1660273551356761000,2.025760986328125,0.0861319974064827,1.8637498617172241,-2.0445659160614014
1660273551358761200,2.02776123046875,0.19364428520202637,2.22477126121521,-1.9285016059875488
1660273551360761000,2.029760986328125,0.29504790902137756,2.577240467071533,-1.8136589527130127
1660273551362761200,2.03176123046875,0.34208452701568604,2.744006633758545,-1.758681058883667
1660273551364761000,2.033760986328125,0.423329621553421,3.029280662536621,-1.653001308441162
1660273551366761200,2.03576123046875,0.475253164768219,3.232698917388916,-1.5454890727996826
1660273551368761300,2.03776123046875,0.4807509481906891,3.2931745052337646,-1.4899003505706787
1660273551370762000,2.039761962890625,0.4709770977497101,3.36403489112854,-1.3848315477371216
1660273551372761300,2.04176123046875,0.4392121136188507,3.3286046981811523,-1.254717230796814
1660273551374761500,2.043761474609375,0.4184426963329315,3.2595770359039307,-1.1753047704696655
1660273551376762400,2.045762451171875,0.3646865487098694,3.0280590057373047,-1.0005972385406494
1660273551378762500,2.047762451171875,0.29138273000717163,2.7097983360290527,-0.8197811841964722
1660273551380762400,2.049762451171875,0.23945917189121246,2.5357015132904053,-0.7360926270484924
1660273551382761500,2.051761474609375,0.00366519158706069,1.6823228597640991,-0.4196644127368927
1660273551384760600,2.053760498046875,0.00366519158706069,1.6823228597640991,-0.4196644127368927
1660273551386760200,2.05576025390625,-0.06414084881544113,1.444696307182312,-0.35124751925468445
1660273551388760300,2.05776025390625,-0.21074850857257843,0.9450085163116455,-0.23335053026676178
1660273551390760200,2.05976025390625,-0.3689626157283783,0.4544837474822998,-0.1508837193250656
1660273551392760300,2.06176025390625,-0.4440990388393402,0.24129177629947662,-0.12889257073402405
1660273551394760200,2.06376025390625,-0.6004805564880371,-0.13988813757896423,-0.09712757170200348
1660273551396760000,2.065760009765625,-0.750142514705658,-0.45875978469848633,-0.09834930300712585
1660273551398760200,2.06776025390625,-0.8191702961921692,-0.5900958180427551,-0.10934487730264664
1660273551400760000,2.069760009765625,-0.9443976879119873,-0.799011766910553,-0.14416420459747314
1660273551402761000,2.071760986328125,-1.0598511695861816,-0.9101892113685608,-0.20402899384498596
1660273551404760800,2.0737607421875,-1.111163854598999,-0.9321803450584412,-0.24434609711170197
1660273551406761000,2.075760986328125,-1.207069754600525,-0.9327912330627441,-0.3335324227809906
1660273551408761000,2.077760986328125,-1.2834278345108032,-0.8680394887924194,-0.43737950921058655
1660273551410761200,2.07976123046875,-1.3084733486175537,-0.8161159753799438,-0.4911356568336487
1660273551412761000,2.081760986328125,-1.3518447875976562,-0.6866125464439392,-0.5968153476715088
1660273551414761200,2.08376123046875,-1.3713924884796143,-0.5442809462547302,-0.7037167549133301
1660273551416761300,2.08576123046875,-1.3750576972961426,-0.4715879559516907,-0.7519751191139221
1660273551418761200,2.08776123046875,-1.3750576972961426,-0.33108896017074585,-0.8497135639190674
1660273551420761300,2.08976123046875,-1.3622294664382935,-0.2070833146572113,-0.9364564418792725
1660273551422760400,2.091760498046875,-1.2748757600784302,-0.06963863968849182,-1.19912850856781
1660273551424759600,2.093759521484375,-1.2748757600784302,-0.06963863968849182,-1.19912850856781
1660273551426758700,2.095758544921875,-1.2748757600784302,-0.06963863968849182,-1.19912850856781
1660273551428758000,2.097758056640625,-1.2748757600784302,-0.06963863968849182,-1.19912850856781
1660273551430757600,2.099757568359375,-1.2583824396133423,-0.09162978827953339,-1.2308934926986694
1660273551432758000,2.101758056640625,-1.2205088138580322,-0.15515977144241333,-1.2962560653686523
1660273551434758000,2.1037578125,-1.2009611129760742,-0.19792033731937408,-1.3243558406829834
1660273551436757000,2.105757080078125,-1.1539244651794434,-0.2938261926174164,-1.3768903017044067
1660273551438757000,2.107757080078125,-1.1050552129745483,-0.403781920671463,-1.4300355911254883
1660273551440757200,2.10975732421875,-1.076344609260559,-0.4599815309047699,-1.455691933631897
1660273551442758100,2.111758056640625,-1.0134254693984985,-0.5760459303855896,-1.5027284622192383
1660273551444759000,2.113759033203125,-0.9462302923202515,-0.6890559792518616,-1.5534303188323975
1660273551446759400,2.115759521484375,-0.9083566069602966,-0.7422012686729431,-1.5766432285308838
1660273551448759300,2.11775927734375,-0.8344419002532959,-0.8454375267028809,-1.6194037199020386
1660273551450759400,2.119759521484375,-0.7489207983016968,-0.9395107626914978,-1.6658295392990112
1660273551452759600,2.121759521484375,-0.7049384713172913,-0.979827880859375,-1.6859880685806274
1660273551454759400,2.123759521484375,-0.6126978397369385,-1.0506882667541504,-1.72935950756073
1660273551456759600,2.125759521484375,-0.5167919993400574,-1.111163854598999,-1.76723313331604
1660273551458759400,2.127759521484375,-0.46731191873550415,-1.1331549882888794,-1.785559058189392
1660273551460759000,2.129759033203125,-0.3646865487098694,-1.1789699792861938,-1.8197675943374634
1660273551462758100,2.131758056640625,-0.03420845419168472,-1.2424999475479126,-1.9223929643630981
1660273551464757200,2.13375732421875,-0.03420845419168472,-1.2424999475479126,-1.9223929643630981
1660273551466756400,2.13575634765625,-0.03420845419168472,-1.2424999475479126,-1.9223929643630981
1660273551468755500,2.13775537109375,-0.03420845419168472,-1.2424999475479126,-1.9223929643630981
1660273551470755300,2.13975537109375,0.0006108652451075613,-1.2406673431396484,-1.9272798299789429
1660273551472755500,2.14175537109375,0.06841690838336945,-1.2247848510742188,-1.9443840980529785
1660273551474755600,2.143755615234375,0.12400564551353455,-1.2052371501922607,-1.9511035680770874
1660273551476755500,2.14575537109375,0.152105450630188,-1.1917980909347534,-1.9535470008850098
1660273551478755300,2.14775537109375,0.1973094791173935,-1.1691961288452148,-1.948660135269165
1660273551480755500,2.14975537109375,0.23884831368923187,-1.1423180103302002,-1.9413297176361084
1660273551482756400,2.15175634765625,0.2565633952617645,-1.129489779472351,-1.93766450881958
1660273551484757000,2.153757080078125,0.2968805134296417,-1.1001683473587036,-1.9187277555465698
1660273551486758000,2.1557578125,0.33536502718925476,-1.0690141916275024,-1.9016234874725342
1660273551488758500,2.157758544921875,0.3530801236629486,-1.053742527961731,-1.8887953758239746
1660273551490758700,2.159758544921875,0.3933972120285034,-1.0323622226715088,-1.8576412200927734
1660273551492758800,2.1617587890625,0.4282165467739105,-1.0097602605819702,-1.825876235961914
1660273551494758700,2.163758544921875,0.44287729263305664,-0.99876469373703,-1.8087719678878784
1660273551496758800,2.1657587890625,0.4746423065662384,-0.9920451641082764,-1.7702875137329102
1660273551498758100,2.167758056640625,0.5064072608947754,-1.0024298429489136,-1.7275269031524658
1660273551500758000,2.169758056640625,0.5192354321479797,-1.014647126197815,-1.7043139934539795
1660273551502757000,2.171757080078125,0.6407976150512695,-1.2797627449035645,-1.4202617406845093
1660273551504756200,2.173756103515625,0.6407976150512695,-1.2797627449035645,-1.4202617406845093
1660273551506755300,2.17575537109375,0.6536257863044739,-1.3182471990585327,-1.3781119585037231
1660273551508754400,2.17775439453125,0.6536257863044739,-1.3182471990585327,-1.3781119585037231
1660273551510753500,2.17975341796875,0.6670648455619812,-1.357953429222107,-1.3365731239318848
1660273551512752600,2.181752685546875,0.6670648455619812,-1.357953429222107,-1.3365731239318848
1660273551514752800,2.183752685546875,0.6817256212234497,-1.3927727937698364,-1.2932016849517822
1660273551516752400,2.18575244140625,0.7067710757255554,-1.4654656648635864,-1.2003501653671265
1660273551518752300,2.187752197265625,0.7177666425704956,-1.4966198205947876,-1.149037480354309
1660273551520753000,2.1897529296875,0.7409795522689819,-1.5528194904327393,-1.0506882667541504
1660273551522753000,2.1917529296875,0.7605272531509399,-1.6029103994369507,-0.9425650835037231
1660273551524770800,2.193770751953125,0.769079327583313,-1.6212363243103027,-0.8875871896743774
1660273551526771000,2.19577099609375,0.7770205736160278,-1.6450600624084473,-0.7733554244041443
1660273551528770800,2.197770751953125,0.7837401032447815,-1.6548339128494263,-0.6572909951210022
1660273551530771000,2.19977099609375,0.7861835956573486,-1.653001308441162,-0.5974262356758118
1660273551532770800,2.201770751953125,0.7849618196487427,-1.635897159576416,-0.47708576917648315
1660273551534770700,2.203770751953125,0.7733554244041443,-1.6029103994369507,-0.35613444447517395
1660273551536770600,2.2057705078125,0.7654141783714294,-1.5815300941467285,-0.294437050819397
1660273551538770400,2.2077705078125,0.740368664264679,-1.5271631479263306,-0.17043140530586243
1660273551540770300,2.209770263671875,0.7067710757255554,-1.4550809860229492,-0.04459316283464432
1660273551542767600,2.211767578125,0.6615670323371887,-1.3756685256958008,0.07880161702632904
1660273551544767500,2.213767578125,0.6352998614311218,-1.3335188627243042,0.1411098688840866
1660273551546767400,2.215767333984375,0.578489363193512,-1.2492194175720215,0.2675589919090271
1660273551548766500,2.217766357421875,0.5522221922874451,-1.2064588069915771,0.33108896017074585
1660273551550766300,2.219766357421875,0.5002986192703247,-1.1246029138565063,0.45814892649650574
1660273551552766500,2.221766357421875,0.45875978469848633,-1.0488556623458862,0.5852088928222656
1660273551554766300,2.223766357421875,0.44287729263305664,-1.016479730606079,0.6517932415008545
1660273551556766200,2.22576611328125,0.413555771112442,-0.9572258591651917,0.7812966704368591
1660273551558766000,2.22776611328125,0.39217549562454224,-0.9144652485847473,0.912021815776825
1660273551560766200,2.22976611328125,0.38240164518356323,-0.8998045325279236,0.9816604256629944
1660273551562766000,2.23176611328125,0.36651915311813354,-0.8918632864952087,1.1184942722320557
1660273551564766000,2.233765869140625,0.3536909818649292,-0.9004153609275818,1.2571606636047363
1660273551566766000,2.23576611328125,0.3500257730484009,-0.9150761365890503,1.3310753107070923
1660273551568766000,2.237765869140625,0.3390302062034607,-0.9608910083770752,1.4746286869049072
1660273551570766000,2.23976611328125,0.3323107063770294,-1.0293079614639282,1.626123309135437
1660273551572766500,2.241766357421875,0.3274237811565399,-1.0714576244354248,1.7079792022705078
1660273551574766600,2.2437666015625,0.3237585723400116,-1.1673635244369507,1.8698585033416748
1660273551576766500,2.245766357421875,0.3182607889175415,-1.2779301404953003,2.0335702896118164
1660273551578766000,2.24776611328125,0.3176499307155609,-1.3390166759490967,2.121535062789917
1660273551580766000,2.249765869140625,0.30604347586631775,-1.46424400806427,2.3011293411254883
1660273551582765000,2.25176513671875,0.2791654169559479,-1.7269160747528076,2.6755897998809814
1660273551584763600,2.253763671875,0.2791654169559479,-1.7269160747528076,2.6755897998809814
1660273551586763500,2.255763427734375,0.27611109614372253,-1.7825047969818115,2.769052267074585
1660273551588763600,2.257763671875,0.25961771607398987,-1.8887953758239746,2.9608638286590576
1660273551590763500,2.259763427734375,0.2528982162475586,-1.9370536804199219,3.053715467453003
1660273551592763600,2.261763671875,0.23945917189121246,-2.020742177963257,3.2375857830047607
1660273551594763500,2.263763427734375,0.21868975460529327,-2.082439661026001,3.411682367324829
1660273551596763600,2.265763671875,0.20830504596233368,-2.1068742275238037,3.4917056560516357
1660273551598763500,2.267763427734375,0.19425514340400696,-2.13008713722229,3.640146017074585
1660273551600763600,2.269763671875,0.17776179313659668,-2.1154263019561768,3.760486364364624
1660273551602764500,2.2717646484375,0.16798794269561768,-2.0897700786590576,3.8056905269622803
1660273551604764700,2.2737646484375,0.1459967941045761,-2.009746551513672,3.866776943206787
1660273551606764500,2.2757646484375,0.11484266817569733,-1.8973474502563477,3.874718189239502
1660273551608765000,2.277764892578125,0.08735372871160507,-1.822821855545044,3.8563923835754395
1660273551610765000,2.27976513671875,0.04214970022439957,-1.616349458694458,3.7812559604644775
1660273551612765200,2.28176513671875,-0.006108652334660292,-1.3542882204055786,3.646254539489746
1660273551614765000,2.28376513671875,-0.033597588539123535,-1.19607412815094,3.55340313911438
1660273551616765200,2.28576513671875,-0.08002334833145142,-0.8484918475151062,3.316387414932251
1660273551618766000,2.28776611328125,-0.1258382350206375,-0.44715335965156555,2.989574432373047
1660273551620766000,2.289765869140625,-0.14477506279945374,-0.22968533635139465,2.8014280796051025
1660273551622765000,2.29176513671875,-0.21930062770843506,1.2687671184539795,1.0867292881011963
1660273551624764200,2.29376416015625,-0.21930062770843506,1.2687671184539795,1.0867292881011963
1660273551626763300,2.29576318359375,-0.2272418737411499,1.4184291362762451,0.8283332586288452
1660273551628762400,2.297762451171875,-0.2272418737411499,1.4184291362762451,0.8283332586288452
1660273551630762500,2.299762451171875,-0.2321287989616394,1.5570955276489258,0.5601634383201599
1660273551632761600,2.30176171875,-0.2431243658065796,1.651168704032898,0.30115658044815063
1660273551634761700,2.30376171875,-0.25473082065582275,1.7568484544754028,-0.19486601650714874
1660273551636761600,2.30576171875,-0.25106561183929443,1.7440202236175537,-0.6285803318023682
1660273551638762000,2.307761962890625,-0.2480112910270691,1.6878206729888916,-0.8142833709716797
1660273551640761900,2.309761962890625,-0.23335053026676178,1.4947872161865234,-1.1252137422561646
1660273551642762800,2.3117626953125,-0.1966986060142517,1.273043155670166,-1.3494013547897339
1660273551644763600,2.313763671875,-0.16859880089759827,1.1270463466644287,-1.431868076324463
1660273551646763800,2.315763671875,-0.12400564551353455,0.8497135639190674,-1.5094480514526367
1660273551648764000,2.317763916015625,-0.09834930300712585,0.5662720799446106,-1.49906325340271
1660273551650763800,2.319763671875,-0.036651913076639175,0.44287729263305664,-1.4666874408721924
1660273551652764000,2.321763916015625,0.004886921960860491,0.2321287989616394,-1.361007809638977
1660273551654764000,2.323763916015625,0.02382374368607998,0.1368338167667389,-1.2803735733032227
1660273551656764000,2.325763916015625,0.05864306539297104,-0.009773843921720982,-1.0977247953414917
1660273551658763800,2.327763671875,0.06963863968849182,-0.09468411654233932,-0.8845328688621521
1660273551660764000,2.329763916015625,0.06536258012056351,-0.11911872029304504,-0.7715228199958801
1660273551662763000,2.331762939453125,-0.12095131725072861,0.09407325088977814,0.1319468915462494
1660273551664762000,2.33376220703125,-0.12095131725072861,0.09407325088977814,0.1319468915462494
1660273551666761200,2.33576123046875,-0.12095131725072861,0.09407325088977814,0.1319468915462494
1660273551668760300,2.33776025390625,-0.12095131725072861,0.09407325088977814,0.1319468915462494
1660273551670760200,2.33976025390625,-0.15943582355976105,0.1612684279680252,0.23151792585849762
1660273551672760300,2.34176025390625,-0.19975294172763824,0.22357667982578278,0.33108896017074585
1660273551674760200,2.34376025390625,-0.27550023794174194,0.3549126982688904,0.5094616413116455
1660273551676760300,2.34576025390625,-0.35185837745666504,0.475253164768219,0.6725626587867737
1660273551678759400,2.347759521484375,-0.3891211748123169,0.5345070958137512,0.749531626701355
1660273551680759600,2.349759521484375,-0.4599815309047699,0.636521577835083,0.8900306820869446
1660273551682760200,2.35176025390625,-0.5192354321479797,0.7165449261665344,1.0335839986801147
1660273551684761000,2.353760986328125,-0.5528330206871033,0.7415903806686401,1.1020009517669678
1660273551686762000,2.355761962890625,-0.6023131608963013,0.7721336483955383,1.2272282838821411
1660273551688763000,2.357762939453125,-0.6334672570228577,0.7855727076530457,1.33168625831604
1660273551690763000,2.359762939453125,-0.6432411074638367,0.797789990901947,1.378722906112671
1660273551692763400,2.361763427734375,-0.6426302194595337,0.8515461683273315,1.4489723443984985
1660273551694763300,2.36376318359375,-0.6151412725448608,0.9627236127853394,1.4929546117782593
1660273551696763400,2.365763427734375,-0.5925393104553223,1.0366383790969849,1.5027284622192383
1660273551698763800,2.367763671875,-0.5387831330299377,1.2027937173843384,1.5161675214767456
1660273551700763600,2.369763671875,-0.4489859640598297,1.3750576972961426,1.5027284622192383
1660273551702762800,2.3717626953125,0.10690141469240189,1.8839083909988403,1.3952162265777588
1660273551704761900,2.373761962890625,0.18936823308467865,1.920560359954834,1.387274980545044
1660273551706761000,2.375760986328125,0.26939156651496887,1.9449949264526367,1.378722906112671
1660273551708760000,2.377760009765625,0.26939156651496887,1.9449949264526367,1.378722906112671
1660273551710759200,2.37975927734375,0.26939156651496887,1.9449949264526367,1.378722906112671
1660273551712758300,2.38175830078125,0.26939156651496887,1.9449949264526367,1.378722906112671
1660273551714758100,2.383758056640625,0.36102136969566345,1.9675970077514648,1.3701707124710083
1660273551716757800,2.3857578125,0.5369505286216736,1.9834794998168945,1.356731653213501
1660273551718758000,2.3877578125,0.7324274182319641,1.99752938747406,1.3390166759490967
1660273551720757800,2.3897578125,0.8362745046615601,2.0146336555480957,1.3280210494995117
1660273551722759000,2.391759033203125,1.0403034687042236,2.0812180042266846,1.2999212741851807
1660273551724758800,2.3937587890625,1.243721604347229,2.208277940750122,1.2602150440216064
1660273551726759000,2.395759033203125,1.3390166759490967,2.2901337146759033,1.238223910331726
1660273551728758800,2.3977587890625,1.5149458646774292,2.4892759323120117,1.1905763149261475
1660273551730759000,2.399759033203125,1.663996934890747,2.7085764408111572,1.140485405921936
1660273551732758800,2.4017587890625,1.7263051271438599,2.8179214000701904,1.1203268766403198
1660273551734759000,2.403759033203125,1.8154915571212769,3.0463850498199463,1.0677924156188965
1660273551736758800,2.4057587890625,1.8564194440841675,3.271794319152832,1.015868902206421
1660273551738758700,2.407758544921875,1.8576412200927734,3.383582592010498,0.9902125597000122
1660273551740757000,2.409757080078125,1.8106045722961426,3.5778377056121826,0.93095862865448
1660273551742754300,2.41175439453125,1.6365079879760742,3.8154642581939697,0.8252789378166199
1660273551744754400,2.41375439453125,1.6365079879760742,3.8154642581939697,0.8252789378166199
1660273551746754300,2.41575439453125,1.4752395153045654,3.9034290313720703,0.7519751191139221
1660273551748754200,2.417754150390625,1.2852604389190674,3.905872344970703,0.6890559792518616
1660273551750754000,2.419754150390625,1.1838568449020386,3.857614040374756,0.6640105247497559
1660273551752754200,2.421754150390625,0.9553932547569275,3.6309831142425537,0.6004805564880371
1660273551754754000,2.423754150390625,0.7318165898323059,3.241250991821289,0.5540547966957092
1660273551756754200,2.425754150390625,0.6304129362106323,2.9999592304229736,0.5424483418464661
1660273551758754000,2.427754150390625,0.45814892649650574,2.4660630226135254,0.5308418869972229
1660273551760754200,2.429754150390625,0.32681289315223694,1.8851301670074463,0.5558874011039734
1660273551762754000,2.431754150390625,0.27611109614372253,1.585806131362915,0.5760459303855896
1660273551764754200,2.433754150390625,0.20341812074184418,0.988990843296051,0.646295428276062
1660273551766754300,2.43575439453125,0.16432274878025055,0.43127086758613586,0.7293730974197388
1660273551768754200,2.437754150390625,0.15515977144241333,0.17104226350784302,0.7757988572120667
1660273551770754300,2.43975439453125,0.15882496535778046,-0.2932153046131134,0.8649851679801941
1660273551772754200,2.441754150390625,0.17837265133857727,-0.6902777552604675,0.9560040831565857
1660273551774754000,2.443754150390625,0.1869247704744339,-0.8704829812049866,0.9975429177284241
1660273551776754200,2.445754150390625,0.2028072625398636,-1.1954632997512817,1.0800096988677979
1660273551778754600,2.447754638671875,0.21807889640331268,-1.4404202699661255,1.1453723907470703
1660273551780754400,2.44975439453125,0.2272418737411499,-1.531439185142517,1.1722503900527954
1660273551782753500,2.45175341796875,0.2571742534637451,-1.7079792022705078,1.224173903465271
1660273551784752600,2.453752685546875,0.2571742534637451,-1.7079792022705078,1.224173903465271
1660273551786752800,2.455752685546875,0.2620611786842346,-1.7201964855194092,1.225395679473877
1660273551788752600,2.457752685546875,0.26083946228027344,-1.7104226350784302,1.2180652618408203
1660273551790752800,2.459752685546875,0.25045475363731384,-1.6762142181396484,1.2015719413757324
1660273551792752600,2.461752685546875,0.24617868661880493,-1.6517796516418457,1.1930198669433594
1660273551794752500,2.46375244140625,0.23945917189121246,-1.5949691534042358,1.1643091440200806
1660273551796752600,2.465752685546875,0.23457226157188416,-1.5326608419418335,1.1288789510726929
1660273551798752500,2.46775244140625,0.23151792585849762,-1.49906325340271,1.1087204217910767
1660273551800753200,2.469753173828125,0.23090706765651703,-1.4178181886672974,1.064738154411316
1660273551802754000,2.471754150390625,0.23518311977386475,-1.3329079151153564,1.0122036933898926
1660273551804754000,2.47375390625,0.23518311977386475,-1.2883148193359375,0.9834930300712585
1660273551806754000,2.475754150390625,0.23457226157188416,-1.197295904159546,0.9187413454055786
1660273551808754000,2.47775390625,0.23518311977386475,-1.0910053253173828,0.8497135639190674
1660273551810754000,2.479754150390625,0.23090706765651703,-1.0311405658721924,0.8161159753799438
1660273551812754400,2.48175439453125,0.2272418737411499,-0.8998045325279236,0.7513642311096191
1660273551814754600,2.483754638671875,0.21807889640331268,-0.7562511563301086,0.6884451508522034
1660273551816754400,2.48575439453125,0.21319197118282318,-0.6829473376274109,0.6591235995292664
1660273551818754300,2.48775439453125,0.19975294172763824,-0.5180137157440186,0.6035348773002625
1660273551820754400,2.48975439453125,0.18509216606616974,-0.3536909818649292,0.5583308339118958
1660273551822753500,2.49175341796875,0.14538592100143433,0.23029619455337524,0.4343251883983612
1660273551824752600,2.493752685546875,0.14538592100143433,0.23029619455337524,0.4343251883983612
1660273551826751500,2.49575146484375,0.14538592100143433,0.23029619455337524,0.4343251883983612
1660273551828750600,2.49775048828125,0.14538592100143433,0.23029619455337524,0.4343251883983612
1660273551830750700,2.499750732421875,0.1417207419872284,0.30604347586631775,0.4239404797554016
1660273551832750800,2.501750732421875,0.1514945775270462,0.4355469346046448,0.39584067463874817
1660273551834750700,2.503750732421875,0.15760323405265808,0.49235737323760986,0.38179078698158264
1660273551836750800,2.505750732421875,0.17531833052635193,0.5968153476715088,0.3634648323059082
1660273551838750500,2.50775048828125,0.2015855312347412,0.6939429044723511,0.3488040566444397
1660273551840750300,2.509750244140625,0.21380282938480377,0.7434229850769043,0.3445279896259308
1660273551842751200,2.511751220703125,0.24495697021484375,0.8332201838493347,0.33719760179519653
1660273551844752100,2.513752197265625,0.2718350291252136,0.9089674949645996,0.33169981837272644
1660273551846752300,2.515752197265625,0.28649580478668213,0.9425650835037231,0.3280346393585205
1660273551848752400,2.51775244140625,0.3127630054950714,0.9896016716957092,0.32131510972976685
1660273551850752300,2.519752197265625,0.33719760179519653,1.026253581047058,0.31459560990333557
1660273551852752600,2.521752685546875,0.34513887763023376,1.0427470207214355,0.3121521472930908
1660273551854753300,2.523753173828125,0.3585779070854187,1.0726794004440308,0.31031954288482666
1660273551856753400,2.52575341796875,0.3585779070854187,1.1081095933914185,0.3188716471195221
1660273551858753300,2.527753173828125,0.3579670190811157,1.1264355182647705,0.3274237811565399
1660273551860753000,2.5297529296875,0.342695415019989,1.1655309200286865,0.3579670190811157
1660273551862752000,2.531751953125,0.2474004179239273,1.1410962343215942,0.6359107494354248
1660273551864751000,2.533751220703125,0.2474004179239273,1.1410962343215942,0.6359107494354248
1660273551866750200,2.535750244140625,0.2321287989616394,1.0946705341339111,0.694553792476654
1660273551868749300,2.537749267578125,0.2321287989616394,1.0946705341339111,0.694553792476654
1660273551870749200,2.539749267578125,0.2321287989616394,1.0946705341339111,0.694553792476654
1660273551872748800,2.541748779296875,0.19364428520202637,0.9560040831565857,0.8197811841964722
1660273551874749000,2.5437490234375,0.15332718193531036,0.778853178024292,0.9621127843856812
1660273551876748800,2.545748779296875,0.13500121235847473,0.6792821288108826,1.0427470207214355
1660273551878748700,2.547748779296875,0.09407325088977814,0.45204028487205505,1.2137892246246338
1660273551880748500,2.54974853515625,0.060475658625364304,0.19975294172763824,1.3927727937698364
1660273551882749400,2.55174951171875,0.042760565876960754,0.0659734457731247,1.4868459701538086
1660273551884750300,2.553750244140625,0.009162978269159794,-0.19303341209888458,1.6731599569320679
1660273551886751200,2.555751220703125,-0.025656340643763542,-0.4288274049758911,1.8503108024597168
1660273551888752000,2.557752197265625,-0.04581489413976669,-0.5338962078094482,1.929112434387207
1660273551890752300,2.559752197265625,-0.08307767659425735,-0.7098253965377808,2.0622811317443848
1660273551892752100,2.561752197265625,-0.11728613078594208,-0.8423831462860107,2.1710150241851807
1660273551894752000,2.563751953125,-0.13500121235847473,-0.8912523984909058,2.213164806365967
1660273551896752000,2.565752197265625,-0.16798794269561768,-0.9566149711608887,2.275473117828369
1660273551898752000,2.567751953125,-0.19853121042251587,-0.9779952764511108,2.3127357959747314
1660273551900752000,2.569751953125,-0.21441370248794556,-0.9737191796302795,2.317011833190918
1660273551902751000,2.5717509765625,-0.3500257730484009,-0.5271766781806946,2.152689218521118
1660273551904750000,2.57375,-0.3500257730484009,-0.5271766781806946,2.152689218521118
1660273551906749400,2.57574951171875,-0.36590829491615295,-0.4386012554168701,2.116647958755493
1660273551908748300,2.577748291015625,-0.36590829491615295,-0.4386012554168701,2.116647958755493
1660273551910747600,2.57974755859375,-0.3793473243713379,-0.34636059403419495,2.0763309001922607
1660273551912746500,2.58174658203125,-0.3793473243713379,-0.34636059403419495,2.0763309001922607
1660273551914745600,2.58374560546875,-0.3988949954509735,-0.24923302233219147,2.037846565246582
1660273551916747800,2.585747802734375,-0.4343251883983612,-0.04459316283464432,1.9517145156860352
1660273551918747600,2.58774755859375,-0.45265114307403564,0.060475658625364304,1.9089539051055908
1660273551920748000,2.589748046875,-0.48869219422340393,0.27611109614372253,1.8234328031539917
1660273551922748200,2.591748046875,-0.5241223573684692,0.49724429845809937,1.7366899251937866
1660273551924747000,2.5937470703125,-0.5406157374382019,0.608421802520752,1.6969836950302124
1660273551926746600,2.59574658203125,-0.5717698931694031,0.826500654220581,1.6187928915023804
1660273551928746200,2.597746337890625,-0.5974262356758118,1.0366383790969849,1.5534303188323975
1660273551930746000,2.59974609375,-0.6090326309204102,1.1374311447143555,1.5247195959091187
1660273551932745700,2.601745849609375,-0.6224716901779175,1.3176363706588745,1.474017858505249
1660273551934745600,2.60374560546875,-0.6322455406188965,1.472796082496643,1.434922456741333
1660273551936745500,2.605745361328125,-0.636521577835083,1.5357152223587036,1.423926830291748
1660273551938745300,2.607745361328125,-0.6377432942390442,1.635897159576416,1.4080443382263184
1660273551940745200,2.6097451171875,-0.6383541822433472,1.6988162994384766,1.4098769426345825
1660273551942742500,2.611742431640625,-0.6279694437980652,1.728137731552124,1.4202617406845093
1660273551944742400,2.613742431640625,-0.6249151229858398,1.7287486791610718,1.4306464195251465
1660273551946742500,2.615742431640625,-0.6151412725448608,1.7079792022705078,1.4605787992477417
1660273551948742400,2.617742431640625,-0.6059783101081848,1.6908750534057617,1.4764612913131714
1660273551950742300,2.6197421875,-0.5900958180427551,1.632842779159546,1.5173892974853516
1660273551952742100,2.6217421875,-0.5723807215690613,1.5570955276489258,1.5570955276489258
1660273551954742500,2.623742431640625,-0.5650503635406494,1.5149458646774292,1.5754214525222778
1660273551956742400,2.625742431640625,-0.543059229850769,1.423926830291748,1.6114624738693237
1660273551958742500,2.627742431640625,-0.5247332453727722,1.3078625202178955,1.6420058012008667
1660273551960742400,2.629742431640625,-0.5167919993400574,1.2498302459716797,1.651168704032898
1660273551962742500,2.631742431640625,-0.5015203952789307,1.1197160482406616,1.663996934890747
1660273551964742400,2.633742431640625,-0.48685958981513977,0.9902125597000122,1.6646077632904053
1660273551966741800,2.63574169921875,-0.4764748811721802,0.9236282706260681,1.6627751588821411
1660273551968742000,2.637741943359375,-0.4605923891067505,0.79840087890625,1.6481144428253174
1660273551970741800,2.63974169921875,-0.43676865100860596,0.6939429044723511,1.616349458694458
1660273551972741400,2.641741455078125,-0.423329621553421,0.6530149579048157,1.5992451906204224
1660273551974741500,2.643741455078125,-0.3995058834552765,0.5839871764183044,1.547932505607605
1660273551976741400,2.645741455078125,-0.3677408695220947,0.5345070958137512,1.4874569177627563
1660273551978741200,2.6477412109375,-0.3530801236629486,0.5149593949317932,1.454470157623291
1660273551980741400,2.649741455078125,-0.31520646810531616,0.4954117238521576,1.3829989433288574
1660273551982740500,2.651740478515625,-0.22968533635139465,0.48869219422340393,1.2290608882904053
1660273551984739600,2.653739501953125,-0.22968533635139465,0.48869219422340393,1.2290608882904053
1660273551986739700,2.65573974609375,-0.2070833146572113,0.49724429845809937,1.1924089193344116
1660273551988739600,2.657739501953125,-0.15332718193531036,0.5167919993400574,1.1166616678237915
1660273551990739700,2.65973974609375,-0.12828169763088226,0.5326744914054871,1.0806206464767456
1660273551992739800,2.66173974609375,-0.06902777403593063,0.5662720799446106,1.0140362977981567
1660273551994740000,2.663739990234375,-0.01038470957428217,0.6096435189247131,0.950506329536438
1660273551996740000,2.665739990234375,0.016493361443281174,0.637132465839386,0.9181304574012756
1660273551998740000,2.667739990234375,0.0757472887635231,0.6914994716644287,0.8619308471679688
1660273552000740000,2.669739990234375,0.1368338167667389,0.7513642311096191,0.8093964457511902
1660273552002741000,2.671740966796875,0.16554448008537292,0.7806857824325562,0.7831292152404785
1660273552004740900,2.673740966796875,0.22540926933288574,0.8429940342903137,0.740368664264679
1660273552006741000,2.675740966796875,0.2828305959701538,0.9053022861480713,0.7024950385093689
1660273552008740900,2.677740966796875,0.31031954288482666,0.9327912330627441,0.6872233748435974
1660273552010741000,2.679740966796875,0.36529740691185,0.988990843296051,0.655458390712738
1660273552012740900,2.681740966796875,0.41233405470848083,1.0433578491210938,0.6279694437980652
