time,seconds_elapsed,z,y,x
1660273465731078100,0.157078125,0.04764748737215996,0.1966986060142517,-0.039706241339445114
1660273465733078300,0.159078369140625,0.0507018156349659,0.20402899384498596,-0.04398229718208313
1660273465735052300,0.16105224609375,0.05742133408784866,0.21807889640331268,-0.056810468435287476
1660273465737051600,0.1630517578125,0.06169738993048668,0.22663100063800812,-0.06291911751031876
1660273465739051300,0.16505126953125,0.06536258012056351,0.23273965716362,-0.0659734457731247
1660273465741051100,0.167051025390625,0.07269296050071716,0.24617868661880493,-0.07757988572120667
1660273465743051000,0.169051025390625,0.08185594528913498,0.2620611786842346,-0.08674286305904388
1660273465745051000,0.17105078125,0.08735372871160507,0.2681698501110077,-0.09346238523721695
1660273465747050500,0.173050537109375,0.09773843735456467,0.28466320037841797,-0.1062905490398407
1660273465749050400,0.17505029296875,0.10812314599752426,0.3017674386501312,-0.1160643994808197
1660273465751050500,0.177050537109375,0.11239920556545258,0.3090978264808655,-0.12400564551353455
1660273465753050400,0.17905029296875,0.1258382350206375,0.32498031854629517,-0.13316862285137177
1660273465755051000,0.181051025390625,0.13927727937698364,0.34025195240974426,-0.14905111491680145
1660273465757051000,0.18305078125,0.1417207419872284,0.34636059403419495,-0.15393804013729095
1660273465759050800,0.18505078125,0.15271630883216858,0.3628539443016052,-0.16554448008537292
1660273465761051000,0.18705078125,0.16432274878025055,0.3683517575263977,-0.17531833052635193
1660273465763050800,0.18905078125,0.16798794269561768,0.3732386529445648,-0.18020524084568024
1660273465765050600,0.191050537109375,0.17959438264369965,0.3799581825733185,-0.18936823308467865
1660273465767050500,0.193050537109375,0.18570303916931152,0.38240164518356323,-0.19853121042251587
1660273465769050600,0.195050537109375,0.19364428520202637,0.38179078698158264,-0.20097467303276062
1660273465771050500,0.197050537109375,0.20036379992961884,0.3781255781650543,-0.20830504596233368
1660273465773050600,0.199050537109375,0.20586158335208893,0.3738495409488678,-0.21624629199504852
1660273465775049200,0.20104931640625,0.21868975460529327,0.35185837745666504,-0.22602014243602753
1660273465777048300,0.20304833984375,0.21868975460529327,0.35185837745666504,-0.22602014243602753
1660273465779048200,0.205048095703125,0.2174680233001709,0.34574973583221436,-0.22907446324825287
1660273465781048300,0.20704833984375,0.22113321721553802,0.3378084897994995,-0.23090706765651703
1660273465783048200,0.209048095703125,0.22113321721553802,0.3225368559360504,-0.23640485107898712
1660273465785048300,0.21104833984375,0.22540926933288574,0.3078760802745819,-0.24495697021484375
1660273465787048200,0.213048095703125,0.22663100063800812,0.2993239760398865,-0.2480112910270691
1660273465789048000,0.215048095703125,0.22602014243602753,0.2822197377681732,-0.25473082065582275
1660273465791048200,0.217048095703125,0.23029619455337524,0.2638937830924988,-0.26145032048225403
1660273465793048000,0.219048095703125,0.23090706765651703,0.25473082065582275,-0.26572638750076294
1660273465795049000,0.221049072265625,0.23273965716362,0.23457226157188416,-0.27000242471694946
1660273465797048800,0.223048828125,0.23579397797584534,0.21502456068992615,-0.27611109614372253
1660273465799049000,0.225049072265625,0.2376265823841095,0.20586158335208893,-0.28038713335990906
1660273465801048600,0.227048583984375,0.2370157092809677,0.18509216606616974,-0.2840523421764374
1660273465803048400,0.22904833984375,0.24007004499435425,0.16493362188339233,-0.2877175211906433
1660273465805048600,0.231048583984375,0.24007004499435425,0.15454891324043274,-0.28527405858039856
1660273465807048700,0.233048583984375,0.24190263450145721,0.13561208546161652,-0.29016098380088806
1660273465809048600,0.235048583984375,0.24129177629947662,0.12034045159816742,-0.2932153046131134
1660273465811048700,0.237048583984375,0.24007004499435425,0.11178833991289139,-0.2926044464111328
1660273465813048800,0.239048828125,0.24068090319633484,0.09773843735456467,-0.2932153046131134
1660273465815047700,0.241047607421875,0.24434609711170197,0.07452555745840073,-0.2877175211906433
1660273465817046800,0.243046875,0.24434609711170197,0.07452555745840073,-0.2877175211906433
1660273465819046000,0.2450458984375,0.24434609711170197,0.07452555745840073,-0.2877175211906433
1660273465821045000,0.247044921875,0.24434609711170197,0.07452555745840073,-0.2877175211906433
1660273465823044900,0.249044921875,0.24495697021484375,0.07330382615327835,-0.29138273000717163
1660273465825045000,0.251044921875,0.2474004179239273,0.0708603709936142,-0.28955012559890747
1660273465827044900,0.253044921875,0.24617868661880493,0.0708603709936142,-0.29077184200286865
1660273465829045000,0.255044921875,0.2474004179239273,0.07024950534105301,-0.28955012559890747
1660273465831044900,0.257044921875,0.24556782841682434,0.07208210229873657,-0.2889392673969269
1660273465833044700,0.259044677734375,0.242513507604599,0.07208210229873657,-0.2883284091949463
1660273465835045600,0.261045654296875,0.24129177629947662,0.07330382615327835,-0.2877175211906433
1660273465837046500,0.263046630859375,0.23945917189121246,0.07819075137376785,-0.2889392673969269
1660273465839046400,0.26504638671875,0.23884831368923187,0.08185594528913498,-0.28955012559890747
1660273465841046300,0.26704638671875,0.2382374405860901,0.08552113175392151,-0.29077184200286865
1660273465843046400,0.26904638671875,0.23396138846874237,0.08979719132184982,-0.294437050819397
1660273465845046300,0.27104638671875,0.23335053026676178,0.09407325088977814,-0.30115658044815063
1660273465847046400,0.27304638671875,0.23335053026676178,0.0959058403968811,-0.30115658044815063
1660273465849046300,0.27504638671875,0.23029619455337524,0.10018189996480942,-0.3090978264808655
1660273465851046400,0.27704638671875,0.22602014243602753,0.10567969083786011,-0.3182607889175415
1660273465853046500,0.279046630859375,0.2278527319431305,0.10201449692249298,-0.3219259977340698
1660273465855045600,0.281045654296875,0.23151792585849762,0.09957103431224823,-0.3597996234893799
1660273465857044700,0.283044677734375,0.23151792585849762,0.09957103431224823,-0.3597996234893799
1660273465859043800,0.2850439453125,0.23029619455337524,0.09712757170200348,-0.3677408695220947
1660273465861043500,0.28704345703125,0.23029619455337524,0.09712757170200348,-0.3677408695220947
1660273465863043600,0.289043701171875,0.23090706765651703,0.0959058403968811,-0.3744603991508484
1660273465865043500,0.29104345703125,0.23335053026676178,0.09407325088977814,-0.3781255781650543
1660273465867043300,0.293043212890625,0.2370157092809677,0.09285151958465576,-0.3927863538265228
1660273465869043500,0.29504345703125,0.24068090319633484,0.09040805697441101,-0.4056145250797272
1660273465871043300,0.297043212890625,0.242513507604599,0.08918632566928864,-0.4141666293144226
1660273465873043200,0.299043212890625,0.24678955972194672,0.08796459436416626,-0.4288274049758911
1660273465875044000,0.301044189453125,0.251676470041275,0.08857546001672745,-0.4398229718208313
1660273465877045000,0.303044921875,0.2541199326515198,0.08735372871160507,-0.4495968222618103
1660273465879046000,0.3050458984375,0.2620611786842346,0.08307767659425735,-0.46364670991897583
1660273465881046800,0.307046875,0.2681698501110077,0.07757988572120667,-0.4807509481906891
1660273465883047000,0.309046875,0.27122417092323303,0.07391469180583954,-0.48808133602142334
1660273465885047000,0.311047119140625,0.2816088795661926,0.06352998316287994,-0.5009095072746277
1660273465887047000,0.313046875,0.29993483424186707,0.04886921867728233,-0.5180137157440186
1660273465889047000,0.315047119140625,0.3194825351238251,0.03787364438176155,-0.5265658497810364
1660273465891047000,0.317046875,0.3579670190811157,0.00855211354792118,-0.5467243790626526
1660273465893047000,0.319047119140625,0.3836233615875244,-0.010995574295520782,-0.5736024379730225
1660273465895046100,0.321046142578125,0.4092797040939331,-0.07696902006864548,-0.6572909951210022
1660273465897045200,0.323045166015625,0.4092797040939331,-0.08429940044879913,-0.6670648455619812
1660273465899044400,0.32504443359375,0.4080579876899719,-0.09285151958465576,-0.675616979598999
1660273465901043500,0.32704345703125,0.4080579876899719,-0.09285151958465576,-0.675616979598999
1660273465903042600,0.32904248046875,0.4080579876899719,-0.09285151958465576,-0.675616979598999
1660273465905041700,0.331041748046875,0.4080579876899719,-0.09285151958465576,-0.675616979598999
1660273465907041800,0.333041748046875,0.4098905920982361,-0.10018189996480942,-0.684779942035675
1660273465909041700,0.335041748046875,0.41172316670417786,-0.11789698898792267,-0.6994407176971436
1660273465911041500,0.33704150390625,0.4178318381309509,-0.13011430203914642,-0.7104362845420837
1660273465913041700,0.339041748046875,0.42149701714515686,-0.13744467496871948,-0.7122688889503479
1660273465915041500,0.34104150390625,0.4331034719944,-0.14233160018920898,-0.7171558141708374
1660273465917041700,0.343041748046875,0.4447098970413208,-0.14355333149433136,-0.7183775305747986
1660273465919041500,0.34504150390625,0.4550946056842804,-0.14233160018920898,-0.7214318513870239
1660273465921041700,0.347041748046875,0.4709770977497101,-0.1313360333442688,-0.7183775305747986
1660273465923041500,0.34904150390625,0.4917465150356293,-0.11484266817569733,-0.7153232097625732
1660273465925041700,0.351041748046875,0.50335294008255,-0.10567969083786011,-0.7153232097625732
1660273465927042000,0.3530419921875,0.5290092825889587,-0.08429940044879913,-0.7092145681381226
1660273465929044000,0.3550439453125,0.5595525503158569,-0.06475171446800232,-0.7067710757255554
1660273465931044000,0.357044189453125,0.5705481171607971,-0.05375614017248154,-0.7055493593215942
1660273465933044200,0.359044189453125,0.6053674817085266,-0.033597588539123535,-0.7031059265136719
1660273465935042000,0.3610419921875,0.6701191663742065,-0.07757988572120667,-0.7055493593215942
1660273465937042200,0.363042236328125,0.6701191663742065,-0.07757988572120667,-0.7055493593215942
1660273465939042300,0.365042236328125,0.7385360598564148,-0.13316862285137177,-0.7159340381622314
1660273465941042200,0.367042236328125,0.817948579788208,-0.15577064454555511,-0.7257078886032104
1660273465943042300,0.369042236328125,0.8582656979560852,-0.152105450630188,-0.7263187766075134
1660273465945042200,0.371042236328125,0.9370672702789307,-0.12400564551353455,-0.7354817390441895
1660273465947042300,0.373042236328125,1.0183123350143433,-0.07635815441608429,-0.7379252314567566
1660273465949042200,0.375042236328125,1.056796908378601,-0.048258353024721146,-0.7385360598564148
1660273465951042300,0.377042236328125,1.1325441598892212,0.00733038317412138,-0.740368664264679
1660273465953042200,0.379042236328125,1.1997393369674683,0.05619960278272629,-0.7440338730812073
1660273465955041500,0.38104150390625,1.2290608882904053,0.07391469180583954,-0.7452555894851685
1660273465957041700,0.383041748046875,1.2791517972946167,0.09896016865968704,-0.7489207983016968
1660273465959041800,0.385041748046875,1.3164145946502686,0.09712757170200348,-0.7531968355178833
1660273465961041700,0.387041748046875,1.3322970867156982,0.08979719132184982,-0.7574729323387146
1660273465963041800,0.389041748046875,1.3548991680145264,0.0659734457731247,-0.7611380815505981
1660273465965042000,0.3910419921875,1.3652838468551636,0.029932396486401558,-0.7641924023628235
1660273465967041800,0.393041748046875,1.3726142644882202,0.014049900695681572,-0.7654141783714294
1660273465969042000,0.3950419921875,1.379333734512329,-0.021991148591041565,-0.769690215587616
1660273465971042000,0.3970419921875,1.380555510520935,-0.05864306539297104,-0.7684684991836548
1660273465973042000,0.3990419921875,1.3817771673202515,-0.0757472887635231,-0.769079327583313
1660273465975041000,0.401041015625,1.377501130104065,-0.1514945775270462,-0.7617489695549011
1660273465977040400,0.403040283203125,1.377501130104065,-0.1514945775270462,-0.7617489695549011
1660273465979039700,0.405039794921875,1.3738359212875366,-0.16859880089759827,-0.759916365146637
1660273465981039900,0.407039794921875,1.361007809638977,-0.1966986060142517,-0.750142514705658
1660273465983040000,0.4090400390625,1.3475687503814697,-0.21930062770843506,-0.7397578358650208
1660273465985040400,0.411040283203125,1.341460108757019,-0.22968533635139465,-0.7391469478607178
1660273465987040300,0.413040283203125,1.321912407875061,-0.24129177629947662,-0.7263187766075134
1660273465989039900,0.415039794921875,1.3078625202178955,-0.25106561183929443,-0.7214318513870239
1660273465991039700,0.417039794921875,1.2870930433273315,-0.25045475363731384,-0.7098253965377808
1660273465993039600,0.41903955078125,1.2614367008209229,-0.2577851414680481,-0.6969972252845764
1660273465995040500,0.42104052734375,1.2486085891723633,-0.2583959996700287,-0.6908885836601257
1660273465997041200,0.423041259765625,1.2229522466659546,-0.26083946228027344,-0.675616979598999
1660273465999041000,0.425041015625,1.197906732559204,-0.2632829248905182,-0.6633996367454529
1660273466001041200,0.427041259765625,1.1850786209106445,-0.26145032048225403,-0.6536257863044739
1660273466003041000,0.429041015625,1.1612548828125,-0.2632829248905182,-0.6401867866516113
1660273466005041200,0.431041259765625,1.1374311447143555,-0.2669481039047241,-0.6218608021736145
1660273466007041300,0.433041259765625,1.1276572942733765,-0.2675589919090271,-0.6151412725448608
1660273466009041200,0.435041259765625,1.103833556175232,-0.2675589919090271,-0.5968153476715088
1660273466011041300,0.437041259765625,1.081842303276062,-0.2669481039047241,-0.5809328556060791
1660273466013041400,0.43904150390625,1.0708467960357666,-0.2681698501110077,-0.5717698931694031
1660273466015040800,0.441040771484375,0.9926560521125793,-0.2370157092809677,-0.5229006409645081
1660273466017040000,0.443039794921875,0.9810495972633362,-0.22968533635139465,-0.5174028873443604
1660273466019039000,0.4450390625,0.9810495972633362,-0.22968533635139465,-0.5174028873443604
1660273466021038000,0.4470380859375,0.9810495972633362,-0.22968533635139465,-0.5174028873443604
1660273466023038200,0.4490380859375,0.96883225440979,-0.22296582162380219,-0.5125159621238708
1660273466025037800,0.451037841796875,0.9560040831565857,-0.21441370248794556,-0.5088507533073425
1660273466027037700,0.45303759765625,0.9266825914382935,-0.19547687470912933,-0.49846604466438293
1660273466029037600,0.45503759765625,0.8998045325279236,-0.17837265133857727,-0.4893030524253845
1660273466031037700,0.45703759765625,0.8839219808578491,-0.16493362188339233,-0.485027015209198
1660273466033037300,0.459037353515625,0.8527678847312927,-0.14538592100143433,-0.47769662737846375
1660273466035038500,0.46103857421875,0.816726803779602,-0.1215621829032898,-0.4691445231437683
1660273466037039400,0.463039306640625,0.799011766910553,-0.10995574295520782,-0.46670106053352356
1660273466039039700,0.465039794921875,0.7623597979545593,-0.0910189226269722,-0.46181413531303406
1660273466041040000,0.467039794921875,0.720820963382721,-0.07391469180583954,-0.45692721009254456
1660273466043039700,0.469039794921875,0.6988298296928406,-0.06658431142568588,-0.455705463886261
1660273466045039400,0.471039306640625,0.6536257863044739,-0.05192354694008827,-0.4508185386657715
1660273466047039500,0.47303955078125,0.608421802520752,-0.03848451003432274,-0.44776421785354614
1660273466049039400,0.475039306640625,0.5815436840057373,-0.03298672288656235,-0.4440990388393402
1660273466051039500,0.47703955078125,0.5320636034011841,-0.022602014243602753,-0.4398229718208313
1660273466053039400,0.479039306640625,0.47830748558044434,-0.006719517521560192,-0.4337143301963806
1660273466055038500,0.48103857421875,0.26450464129447937,0.07880161702632904,-0.3982841372489929
1660273466057037000,0.483037109375,0.26450464129447937,0.07880161702632904,-0.3982841372489929
1660273466059036200,0.4850361328125,0.24007004499435425,0.08979719132184982,-0.39217549562454224
1660273466061035300,0.48703515625,0.21624629199504852,0.09834930300712585,-0.38606682419776917
1660273466063035100,0.48903515625,0.21624629199504852,0.09834930300712585,-0.38606682419776917
1660273466065034800,0.49103466796875,0.21624629199504852,0.09834930300712585,-0.38606682419776917
1660273466067035000,0.493034912109375,0.19425514340400696,0.1062905490398407,-0.37629300355911255
1660273466069034800,0.49503466796875,0.14905111491680145,0.12400564551353455,-0.3597996234893799
1660273466071034600,0.49703466796875,0.11056660860776901,0.1319468915462494,-0.3390302062034607
1660273466073034800,0.49903466796875,0.08979719132184982,0.13744467496871948,-0.3280346393585205
1660273466075035400,0.501035400390625,0.0555887371301651,0.1417207419872284,-0.3090978264808655
1660273466077036300,0.503036376953125,0.029932396486401558,0.14416420459747314,-0.28588494658470154
1660273466079037200,0.505037109375,0.018325956538319588,0.14049901068210602,-0.2736676335334778
1660273466081038000,0.5070380859375,-0.001832595793530345,0.1368338167667389,-0.24984388053417206
1660273466083038200,0.5090380859375,-0.013439035043120384,0.13377949595451355,-0.22479841113090515
1660273466085038600,0.51103857421875,-0.019547687843441963,0.13255776464939117,-0.21319197118282318
1660273466087038500,0.51303857421875,-0.02321287989616394,0.13439035415649414,-0.18631389737129211
1660273466089038600,0.51503857421875,-0.031154127791523933,0.13500121235847473,-0.1618792861700058
1660273466091038700,0.517038818359375,-0.03298672288656235,0.13805554807186127,-0.14782938361167908
1660273466093039000,0.5190390625,-0.033597588539123535,0.14782938361167908,-0.1215621829032898
1660273466095038000,0.521037841796875,-0.03298672288656235,0.24007004499435425,-0.027488935738801956
1660273466097037000,0.523037109375,-0.036651913076639175,0.2541199326515198,-0.015882495790719986
1660273466099036200,0.5250361328125,-0.0354301854968071,0.27061331272125244,-0.00427605677396059
1660273466101035300,0.52703515625,-0.0354301854968071,0.27061331272125244,-0.00427605677396059
1660273466103034000,0.5290341796875,-0.0354301854968071,0.27061331272125244,-0.00427605677396059
1660273466105033200,0.531033203125,-0.0354301854968071,0.27061331272125244,-0.00427605677396059
1660273466107033300,0.533033447265625,-0.03787364438176155,0.2974913716316223,0.01466076634824276
1660273466109033200,0.535033203125,-0.039706241339445114,0.3084869384765625,0.024434609338641167
1660273466111033000,0.537033203125,-0.0403171069920063,0.3341432809829712,0.04459316283464432
1660273466113033200,0.539033203125,-0.0403171069920063,0.35674530267715454,0.05925392732024193
1660273466115033300,0.541033447265625,-0.04642575979232788,0.3677408695220947,0.07147123664617538
1660273466117033200,0.543033203125,-0.048258353024721146,0.3878994286060333,0.08918632566928864
1660273466119033300,0.545033447265625,-0.048258353024721146,0.40622538328170776,0.10567969083786011
1660273466121033200,0.547033203125,-0.05314527451992035,0.4147774875164032,0.11423180252313614
1660273466123033300,0.549033447265625,-0.056810468435287476,0.4282165467739105,0.12889257073402405
1660273466125033200,0.551033203125,-0.06352998316287994,0.4404338300228119,0.14477506279945374
1660273466127033300,0.553033447265625,-0.06658431142568588,0.4447098970413208,0.152105450630188
1660273466129033200,0.555033203125,-0.07513642311096191,0.45265114307403564,0.16493362188339233
1660273466131033000,0.557033203125,-0.08552113175392151,0.45692721009254456,0.17898350954055786
1660273466133033000,0.559032958984375,-0.0910189226269722,0.4593706727027893,0.18325957655906677
1660273466135030300,0.5610302734375,-0.10751228034496307,0.4593706727027893,0.2021963894367218
1660273466137030100,0.563030029296875,-0.11484266817569733,0.45692721009254456,0.21013765037059784
1660273466139030000,0.565030029296875,-0.11972958594560623,0.4550946056842804,0.21563543379306793
1660273466141030000,0.56702978515625,-0.13439035415649414,0.45142942667007446,0.2278527319431305
1660273466143029800,0.56902978515625,-0.152105450630188,0.44104471802711487,0.23884831368923187
1660273466145030000,0.57102978515625,-0.1612684279680252,0.4355469346046448,0.24495697021484375
1660273466147029800,0.57302978515625,-0.18631389737129211,0.42088615894317627,0.25595253705978394
1660273466149029600,0.575029541015625,-0.20952677726745605,0.3988949954509735,0.26572638750076294
1660273466151029500,0.577029541015625,-0.22357667982578278,0.3830125033855438,0.27122417092323303
1660273466153029600,0.579029541015625,-0.2541199326515198,0.35063666105270386,0.2773328125476837
1660273466155029000,0.581029052734375,-0.28527405858039856,0.30970868468284607,0.28588494658470154
1660273466157028900,0.58302880859375,-0.2974913716316223,0.28588494658470154,0.29016098380088806
1660273466159028700,0.58502880859375,-0.33292156457901,0.2431243658065796,0.2974913716316223
1660273466161028900,0.58702880859375,-0.36590829491615295,0.18997909128665924,0.30604347586631775
1660273466163028700,0.58902880859375,-0.3805690407752991,0.16737708449363708,0.3072652220726013
1660273466165028900,0.59102880859375,-0.4129449129104614,0.12095131725072861,0.31581732630729675
1660273466167028700,0.59302880859375,-0.4392121136188507,0.08002334833145142,0.3237585723400116
1660273466169028900,0.59502880859375,-0.4538728892803192,0.05803219974040985,0.33047810196876526
1660273466171028700,0.59702880859375,-0.4764748811721802,0.018936822190880775,0.34025195240974426
1660273466173028900,0.59902880859375,-0.4966334402561188,-0.014049900695681572,0.3530801236629486
1660273466175028000,0.601028076171875,-0.5259549617767334,-0.07635815441608429,0.3830125033855438
1660273466177027000,0.603027099609375,-0.5259549617767334,-0.07635815441608429,0.3830125033855438
1660273466179027200,0.605027099609375,-0.5326744914054871,-0.08918632566928864,0.39095374941825867
1660273466181027000,0.607027099609375,-0.5357288122177124,-0.1014036312699318,0.3982841372489929
1660273466183027000,0.60902685546875,-0.5406157374382019,-0.12400564551353455,0.41722095012664795
1660273466185027000,0.611027099609375,-0.5455026626586914,-0.14538592100143433,0.43249258399009705
1660273466187027000,0.61302685546875,-0.5479460954666138,-0.15577064454555511,0.4404338300228119
1660273466189026800,0.61502685546875,-0.5461135506629944,-0.17043140530586243,0.45631635189056396
1660273466191027000,0.61702685546875,-0.5467243790626526,-0.18814650177955627,0.4709770977497101
1660273466193026800,0.61902685546875,-0.5424483418464661,-0.19425514340400696,0.48197266459465027
1660273466195027700,0.62102783203125,-0.5393940210342407,-0.20830504596233368,0.49235737323760986
1660273466197027800,0.62302783203125,-0.5314527750015259,-0.2223549485206604,0.5051855444908142
1660273466199027700,0.62502783203125,-0.5296201705932617,-0.22663100063800812,0.5125159621238708
1660273466201027800,0.62702783203125,-0.5186246037483215,-0.24434609711170197,0.5271766781806946
1660273466203027700,0.62902783203125,-0.5094616413116455,-0.26083946228027344,0.5455026626586914
1660273466205027800,0.63102783203125,-0.50335294008255,-0.2687807083129883,0.5546656250953674
1660273466207028000,0.633028076171875,-0.49235737323760986,-0.2816088795661926,0.5772676467895508
1660273466209027800,0.63502783203125,-0.48197266459465027,-0.2877175211906433,0.5968153476715088
1660273466211028000,0.637028076171875,-0.4764748811721802,-0.2877175211906433,0.608421802520752
1660273466213027800,0.63902783203125,-0.46547931432724,-0.28955012559890747,0.6304129362106323
1660273466215027500,0.64102734375,-0.44837507605552673,-0.2816088795661926,0.7098253965377808
1660273466217026600,0.643026611328125,-0.44837507605552673,-0.2816088795661926,0.7098253965377808
1660273466219026000,0.64502587890625,-0.44837507605552673,-0.2816088795661926,0.7098253965377808
1660273466221025000,0.64702490234375,-0.44837507605552673,-0.2816088795661926,0.7098253965377808
1660273466223025000,0.64902490234375,-0.44654250144958496,-0.28038713335990906,0.7202101349830627
1660273466225024800,0.651024658203125,-0.44593164324760437,-0.2736676335334778,0.7409795522689819
1660273466227026000,0.65302587890625,-0.4440990388393402,-0.2626720666885376,0.7611380815505981
1660273466229026000,0.655026123046875,-0.44287729263305664,-0.2571742534637451,0.769690215587616
1660273466231026000,0.65702587890625,-0.44287729263305664,-0.242513507604599,0.7867944240570068
1660273466233025800,0.65902587890625,-0.4453207552433014,-0.2278527319431305,0.8014551997184753
1660273466235026700,0.661026611328125,-0.4434881806373596,-0.2223549485206604,0.8112290501594543
1660273466237027600,0.663027587890625,-0.4392121136188507,-0.20463985204696655,0.8191702961921692
1660273466239027700,0.66502783203125,-0.43737950921058655,-0.18875735998153687,0.8289441466331482
1660273466241027300,0.66702734375,-0.43615779280662537,-0.1814269721508026,0.8289441466331482
1660273466243027500,0.66902734375,-0.4343251883983612,-0.16737708449363708,0.8362745046615601
1660273466245027600,0.671027587890625,-0.42760565876960754,-0.14782938361167908,0.8393288254737854
1660273466247027500,0.67302734375,-0.4239404797554016,-0.14049901068210602,0.8356636762619019
1660273466249027600,0.675027587890625,-0.41722095012664795,-0.12400564551353455,0.8338310718536377
1660273466251027700,0.67702783203125,-0.4098905920982361,-0.10995574295520782,0.8301658630371094
1660273466253027600,0.679027587890625,-0.39706242084503174,-0.11728613078594208,0.827722430229187
1660273466255026700,0.681026611328125,-0.17592918872833252,-0.16982053220272064,0.8710938692092896
1660273466257026000,0.683026123046875,-0.17592918872833252,-0.16982053220272064,0.8710938692092896
1660273466259025200,0.685025146484375,-0.17592918872833252,-0.16982053220272064,0.8710938692092896
1660273466261024300,0.687024169921875,-0.17592918872833252,-0.16982053220272064,0.8710938692092896
1660273466263024000,0.689024169921875,-0.15760323405265808,-0.13011430203914642,0.8588765263557434
1660273466265024000,0.69102392578125,-0.1411098688840866,-0.10384709388017654,0.8491026759147644
1660273466267024000,0.69302392578125,-0.1007927656173706,-0.10995574295520782,0.8387179970741272
1660273466269024000,0.69502392578125,-0.06291911751031876,-0.15027284622192383,0.8387179970741272
1660273466271023900,0.69702392578125,-0.04764748737215996,-0.16493362188339233,0.8362745046615601
1660273466273023700,0.699023681640625,-0.024434609338641167,-0.16859880089759827,0.8252789378166199
1660273466275024600,0.701024658203125,-0.013439035043120384,-0.14782938361167908,0.8093964457511902
1660273466277025500,0.703025634765625,-0.00427605677396059,-0.14294247329235077,0.799011766910553
1660273466279026400,0.7050263671875,0.007941247895359993,-0.15454891324043274,0.7849618196487427
1660273466281027000,0.707027099609375,0.02015855349600315,-0.18997909128665924,0.778853178024292
1660273466283027200,0.709027099609375,0.02382374368607998,-0.21319197118282318,0.7770205736160278
1660273466285027300,0.71102734375,0.03481931984424591,-0.2541199326515198,0.7757988572120667
1660273466287026200,0.713026123046875,0.039706241339445114,-0.2877175211906433,0.7739662528038025
1660273466289026000,0.715026123046875,0.04337143152952194,-0.29993483424186707,0.7739662528038025
1660273466291026200,0.717026123046875,0.04398229718208313,-0.3243694305419922,0.7764097452163696
1660273466293026300,0.7190263671875,0.04581489413976669,-0.3500257730484009,0.7812966704368591
1660273466295025400,0.721025390625,0.039706241339445114,-0.44837507605552673,0.8185594081878662
1660273466297024500,0.7230244140625,0.039706241339445114,-0.44837507605552673,0.8185594081878662
1660273466299023600,0.725023681640625,0.03298672288656235,-0.45692721009254456,0.8222246170043945
1660273466301023000,0.72702294921875,0.03298672288656235,-0.45692721009254456,0.8222246170043945
1660273466303022000,0.72902197265625,0.03298672288656235,-0.45692721009254456,0.8222246170043945
1660273466305021200,0.731021240234375,0.02932153269648552,-0.46547931432724,0.8240572214126587
1660273466307021300,0.733021240234375,0.02932153269648552,-0.46547931432724,0.8240572214126587
1660273466309021200,0.735021240234375,0.02015855349600315,-0.485027015209198,0.8307767510414124
1660273466311021000,0.73702099609375,0.009773843921720982,-0.5015203952789307,0.8283332586288452
1660273466313021000,0.73902099609375,0.006108652334660292,-0.5106833577156067,0.8283332586288452
1660273466315022000,0.74102197265625,-0.005497787147760391,-0.5290092825889587,0.8197811841964722
1660273466317022000,0.74302197265625,-0.013439035043120384,-0.5497786998748779,0.8124507665634155
1660273466319022000,0.74502197265625,-0.015882495790719986,-0.5626068711280823,0.8087855577468872
1660273466321022000,0.74702197265625,-0.022602014243602753,-0.5839871764183044,0.79840087890625
1660273466323022000,0.74902197265625,-0.02626720629632473,-0.6059783101081848,0.7922922372817993
1660273466325022000,0.75102197265625,-0.028099801391363144,-0.6151412725448608,0.7861835956573486
1660273466327022000,0.75302197265625,-0.025045474991202354,-0.6328563690185547,0.7751879692077637
1660273466329022000,0.75502197265625,-0.02076941914856434,-0.6505714654922485,0.7654141783714294
1660273466331021800,0.757021728515625,-0.02076941914856434,-0.6585127115249634,0.7574729323387146
1660273466333021700,0.759021728515625,-0.014049900695681572,-0.675616979598999,0.740368664264679
1660273466335019000,0.76101904296875,-0.003054326167330146,-0.6976081132888794,0.7049384713172913
1660273466337019100,0.76301904296875,-0.003054326167330146,-0.6976081132888794,0.7049384713172913
1660273466339019000,0.76501904296875,0.006108652334660292,-0.7049384713172913,0.6811147332191467
1660273466341019000,0.767018798828125,0.01710422709584236,-0.7049384713172913,0.656069278717041
1660273466343018800,0.769018798828125,0.022602014243602753,-0.7024950385093689,0.6438519954681396
1660273466345017900,0.771017822265625,0.03481931984424591,-0.694553792476654,0.616973876953125
1660273466347018000,0.77301806640625,0.04764748737215996,-0.6829473376274109,0.5943718552589417
1660273466349017900,0.775017822265625,0.05497787147760391,-0.6762278079986572,0.5839871764183044
1660273466351017700,0.777017822265625,0.0659734457731247,-0.6597344875335693,0.5650503635406494
1660273466353017600,0.779017578125,0.08307767659425735,-0.6426302194595337,0.5461135506629944
1660273466355017000,0.781016845703125,0.08796459436416626,-0.6316346526145935,0.5369505286216736
1660273466357016800,0.783016845703125,0.10018189996480942,-0.616973876953125,0.5198463201522827
1660273466359016700,0.7850166015625,0.10812314599752426,-0.6010913848876953,0.503963828086853
1660273466361016800,0.787016845703125,0.1111774742603302,-0.5913175344467163,0.4960225820541382
1660273466363016700,0.7890166015625,0.11667526513338089,-0.5736024379730225,0.4801400899887085
1660273466365016800,0.791016845703125,0.11850785464048386,-0.5534439086914062,0.46364670991897583
1660273466367016700,0.7930166015625,0.12400564551353455,-0.543059229850769,0.45631635189056396
1660273466369016800,0.795016845703125,0.12339477986097336,-0.5271766781806946,0.4404338300228119
1660273466371016700,0.7970166015625,0.12767083942890167,-0.5088507533073425,0.42699480056762695
1660273466373016800,0.799016845703125,0.12828169763088226,-0.5015203952789307,0.42210787534713745
1660273466375016000,0.801015869140625,0.13255776464939117,-0.4746423065662384,0.3995058834552765
1660273466377015000,0.80301513671875,0.13255776464939117,-0.4746423065662384,0.3995058834552765
1660273466379015000,0.805014892578125,0.13011430203914642,-0.4642575979232788,0.394618958234787
1660273466381015000,0.80701513671875,0.12828169763088226,-0.44837507605552673,0.39156460762023926
1660273466383015000,0.809014892578125,0.12767083942890167,-0.4288274049758911,0.3836233615875244
1660273466385014800,0.811014892578125,0.1270599663257599,-0.41722095012664795,0.38240164518356323
1660273466387015000,0.813014892578125,0.12522737681865692,-0.3952298164367676,0.3744603991508484
1660273466389014800,0.815014892578125,0.12278391420841217,-0.3738495409488678,0.36590829491615295
1660273466391015000,0.817014892578125,0.12522737681865692,-0.3628539443016052,0.3646865487098694
1660273466393014800,0.819014892578125,0.12217304855585098,-0.3384193480014801,0.3579670190811157
1660273466395015700,0.821015625,0.12034045159816742,-0.31154128909111023,0.35124751925468445
1660273466397015800,0.823015869140625,0.12278391420841217,-0.29993483424186707,0.34758231043815613
1660273466399016000,0.825015869140625,0.1264491081237793,-0.27611109614372253,0.342695415019989
1660273466401015800,0.827015869140625,0.1258382350206375,-0.25106561183929443,0.33658674359321594
1660273466403016000,0.829015869140625,0.12828169763088226,-0.24068090319633484,0.33658674359321594
1660273466405016300,0.831016357421875,0.13011430203914642,-0.2174680233001709,0.3280346393585205
1660273466407016400,0.833016357421875,0.1319468915462494,-0.19975294172763824,0.3170390725135803
1660273466409016300,0.835016357421875,0.13072516024112701,-0.1918116807937622,0.3121521472930908
1660273466411016400,0.837016357421875,0.13500121235847473,-0.1814269721508026,0.30115658044815063
1660273466413016300,0.839016357421875,0.13377949595451355,-0.1716531366109848,0.28649580478668213
1660273466415016000,0.841015869140625,0.13561208546161652,-0.16920967400074005,0.22296582162380219
1660273466417015300,0.843015380859375,0.13561208546161652,-0.16920967400074005,0.22296582162380219
1660273466419014400,0.845014404296875,0.13561208546161652,-0.16920967400074005,0.22296582162380219
1660273466421013500,0.847013427734375,0.13561208546161652,-0.16920967400074005,0.22296582162380219
1660273466423013600,0.849013671875,0.1368338167667389,-0.16920967400074005,0.2119702398777008
1660273466425013500,0.851013427734375,0.13500121235847473,-0.1716531366109848,0.18875735998153687
1660273466427014000,0.853013916015625,0.1319468915462494,-0.17531833052635193,0.17287486791610718
1660273466429013800,0.855013671875,0.13072516024112701,-0.17959438264369965,0.14782938361167908
1660273466431013600,0.857013671875,0.12828169763088226,-0.18448130786418915,0.1160643994808197
1660273466433013800,0.859013671875,0.1258382350206375,-0.1869247704744339,0.09896016865968704
1660273466435014700,0.8610146484375,0.12339477986097336,-0.18936823308467865,0.06291911751031876
1660273466437015300,0.863015380859375,0.11850785464048386,-0.19792033731937408,0.02626720629632473
1660273466439015400,0.865015380859375,0.11667526513338089,-0.2028072625398636,0.00855211354792118
1660273466441015300,0.867015380859375,0.10995574295520782,-0.21319197118282318,-0.02871066704392433
1660273466443015400,0.869015380859375,0.10751228034496307,-0.22113321721553802,-0.06841690838336945
1660273466445015300,0.871015380859375,0.10567969083786011,-0.2272418737411499,-0.08674286305904388
1660273466447015400,0.873015380859375,0.09712757170200348,-0.23579397797584534,-0.12400564551353455
1660273466449015300,0.875015380859375,0.08735372871160507,-0.24373523890972137,-0.1661553531885147
1660273466451015400,0.877015380859375,0.08491026610136032,-0.2474004179239273,-0.18814650177955627
1660273466453015000,0.87901513671875,0.07330382615327835,-0.252287358045578,-0.22418753802776337
1660273466455014100,0.88101416015625,0.024434609338641167,-0.25473082065582275,-0.3494149148464203
1660273466457013200,0.88301318359375,0.024434609338641167,-0.25473082065582275,-0.3494149148464203
1660273466459012400,0.885012451171875,0.024434609338641167,-0.25473082065582275,-0.3494149148464203
1660273466461011500,0.887011474609375,0.01710422709584236,-0.25045475363731384,-0.3677408695220947
1660273466465816000,0.891816162109375,0.01710422709584236,-0.25045475363731384,-0.3677408695220947
1660273466467816000,0.89381591796875,0.0006108652451075613,-0.24068090319633484,-0.3982841372489929
1660273466469815800,0.89581591796875,-0.01771509274840355,-0.22602014243602753,-0.42638394236564636
1660273466471816000,0.89781591796875,-0.027488935738801956,-0.21991148591041565,-0.4404338300228119
1660273466473815800,0.89981591796875,-0.04581489413976669,-0.20036379992961884,-0.4648684561252594
1660273466475816000,0.90181591796875,-0.06414084881544113,-0.18325957655906677,-0.4862487316131592
1660273466477816800,0.90381689453125,-0.0708603709936142,-0.17287486791610718,-0.49235737323760986
1660273466479817700,0.905817626953125,-0.08735372871160507,-0.15454891324043274,-0.5064072608947754
1660273466481818600,0.907818603515625,-0.09957103431224823,-0.13255776464939117,-0.5143485069274902
1660273466483819500,0.909819580078125,-0.10751228034496307,-0.1215621829032898,-0.5167919993400574
1660273466485819400,0.9118193359375,-0.1160643994808197,-0.10567969083786011,-0.5198463201522827
1660273466487819500,0.913819580078125,-0.12400564551353455,-0.09040805697441101,-0.5100724697113037
1660273466489819100,0.915819091796875,-0.12889257073402405,-0.08552113175392151,-0.5088507533073425
1660273466491819300,0.9178193359375,-0.13561208546161652,-0.07391469180583954,-0.4960225820541382
1660273466493819100,0.919819091796875,-0.1411098688840866,-0.07147123664617538,-0.4789183437824249
1660273466495819300,0.9218193359375,-0.13927727937698364,-0.07024950534105301,-0.47280970215797424
1660273466497818400,0.923818359375,-0.12522737681865692,-0.12522737681865692,-0.3378084897994995
1660273466499817500,0.9258173828125,-0.12217304855585098,-0.1362229436635971,-0.3170390725135803
1660273466501816600,0.927816650390625,-0.12217304855585098,-0.1362229436635971,-0.3170390725135803
1660273466503815700,0.929815673828125,-0.11972958594560623,-0.14844025671482086,-0.29565876722335815
1660273466505815600,0.931815673828125,-0.11972958594560623,-0.14844025671482086,-0.29565876722335815
1660273466507815000,0.93381494140625,-0.11972958594560623,-0.14844025671482086,-0.29565876722335815
1660273466509814800,0.935814697265625,-0.11789698898792267,-0.16004669666290283,-0.2742784917354584
1660273466511815000,0.93781494140625,-0.1111774742603302,-0.18387043476104736,-0.23029619455337524
1660273466513814800,0.939814697265625,-0.10751228034496307,-0.1973094791173935,-0.2064724564552307
1660273466515815200,0.941815185546875,-0.10201449692249298,-0.21991148591041565,-0.15454891324043274
1660273466517822200,0.943822265625,-0.09651670604944229,-0.24495697021484375,-0.10384709388017654
1660273466519815200,0.945815185546875,-0.09407325088977814,-0.2565633952617645,-0.07635815441608429
1660273466521812200,0.947812255859375,-0.08857546001672745,-0.28038713335990906,-0.024434609338641167
1660273466523810000,0.94981005859375,-0.08246681094169617,-0.3023782968521118,0.03420845419168472
1660273466525808600,0.95180859375,-0.0806342139840126,-0.3127630054950714,0.06230825558304787
1660273466527807500,0.953807373046875,-0.07696902006864548,-0.33536502718925476,0.11789698898792267
1660273466529806300,0.955806396484375,-0.07024950534105301,-0.35246923565864563,0.17409659922122955
1660273466531805700,0.9578056640625,-0.06963863968849182,-0.3646865487098694,0.2028072625398636
1660273466533804800,0.9598046875,-0.06536258012056351,-0.38179078698158264,0.26083946228027344
1660273466535804200,0.96180419921875,-0.05925392732024193,-0.3952298164367676,0.3182607889175415
1660273466537801000,0.963801025390625,-0.05497787147760391,-0.4080579876899719,0.3744603991508484
1660273466539800300,0.96580029296875,-0.05314527451992035,-0.413555771112442,0.3995058834552765
1660273466541799700,0.967799560546875,-0.04581489413976669,-0.4178318381309509,0.4550946056842804
1660273466543799000,0.969799072265625,-0.04398229718208313,-0.4202753007411957,0.48258355259895325
1660273466545798700,0.971798583984375,-0.039095375686883926,-0.42271876335144043,0.5351179838180542
1660273466547798000,0.973798095703125,-0.03787364438176155,-0.4190535545349121,0.5864306092262268
1660273466549797600,0.975797607421875,-0.03420845419168472,-0.4190535545349121,0.6120869517326355
1660273466551797200,0.97779736328125,-0.03298672288656235,-0.4141666293144226,0.6597344875335693
1660273466553796900,0.979796875,-0.02932153269648552,-0.4050036668777466,0.7073819637298584
1660273466555796700,0.981796630859375,-0.02932153269648552,-0.3988949954509735,0.7293730974197388
1660273466557796400,0.98379638671875,-0.027488935738801956,-0.3891211748123169,0.770301103591919
1660273466559796000,0.9857958984375,-0.029932396486401558,-0.3732386529445648,0.8100073337554932
1660273466561795300,0.98779541015625,-0.029932396486401558,-0.36590829491615295,0.8307767510414124
1660273466563795000,0.989794921875,-0.028099801391363144,-0.3500257730484009,0.8625417351722717
1660273466565794800,0.991794921875,-0.031154127791523933,-0.33108896017074585,0.8955284357070923
1660273466567794400,0.99379443359375,-0.03237585723400116,-0.32681289315223694,0.9101892113685608
1660273466569794000,0.9957939453125,-0.030543262138962746,-0.30604347586631775,0.9327912330627441
1660273466571794000,0.9977939453125,-0.03237585723400116,-0.29016098380088806,0.9523389339447021
1660273466573793500,0.99979345703125,-0.03237585723400116,-0.2779437005519867,0.9584475755691528
1660273466575793400,1.00179345703125,-0.03481931984424591,-0.2583959996700287,0.9718865752220154
1660273466577792300,1.003792236328125,-0.03787364438176155,-0.22296582162380219,0.9712757468223572
1660273466579791600,1.00579150390625,-0.03787364438176155,-0.22296582162380219,0.9712757468223572
1660273466581791200,1.007791259765625,-0.03787364438176155,-0.21563543379306793,0.9682214260101318
1660273466583791000,1.009791015625,-0.03726277872920036,-0.20830504596233368,0.9627236127853394
1660273466585791000,1.011791015625,-0.04337143152952194,-0.19608774781227112,0.949895441532135
1660273466587791000,1.013791015625,-0.04581489413976669,-0.18448130786418915,0.931569516658783
1660273466589791200,1.015791259765625,-0.04703662544488907,-0.1820378452539444,0.921184778213501
1660273466591791000,1.017791015625,-0.05009094998240471,-0.1716531366109848,0.8924741148948669
1660273466593791200,1.019791259765625,-0.05314527451992035,-0.1618792861700058,0.8613200187683105
1660273466595791000,1.021791015625,-0.05497787147760391,-0.1563815027475357,0.8442157506942749
1660273466597792000,1.0237919921875,-0.05375614017248154,-0.1466076523065567,0.8057312369346619
1660273466599791900,1.0257919921875,-0.060475658625364304,-0.13439035415649414,0.7660250067710876
1660273466601792000,1.0277919921875,-0.06352998316287994,-0.1264491081237793,0.7446447610855103
1660273466603792100,1.029792236328125,-0.06902777403593063,-0.11911872029304504,0.7006624341011047
1660273466605792000,1.0317919921875,-0.07452555745840073,-0.1062905490398407,0.6511823534965515
1660273466607792000,1.033792236328125,-0.07696902006864548,-0.10201449692249298,0.6298020482063293
1660273466609792300,1.035792236328125,-0.08368854224681854,-0.08979719132184982,0.5791002511978149
1660273466611792100,1.037792236328125,-0.0910189226269722,-0.08002334833145142,0.5296201705932617
1660273466613792300,1.039792236328125,-0.0959058403968811,-0.07513642311096191,0.504574716091156
1660273466615792000,1.041792236328125,-0.10690141469240189,-0.059864792972803116,0.45326200127601624
1660273466617791200,1.043791259765625,-0.15821409225463867,-0.01160643994808197,0.2816088795661926
1660273466619790300,1.045790283203125,-0.15821409225463867,-0.01160643994808197,0.2816088795661926
1660273466621790000,1.0477900390625,-0.15821409225463867,-0.01160643994808197,0.2816088795661926
1660273466623789000,1.0497890625,-0.15821409225463867,-0.01160643994808197,0.2816088795661926
1660273466625789000,1.051788818359375,-0.1667662113904953,-0.005497787147760391,0.2590068578720093
1660273466627788800,1.053788818359375,-0.1875356286764145,0.010995574295520782,0.21502456068992615
1660273466629789000,1.055788818359375,-0.2076941877603531,0.029932396486401558,0.1722639948129654
1660273466631788800,1.057788818359375,-0.21991148591041565,0.039095375686883926,0.15515977144241333
1660273466633789000,1.059788818359375,-0.23945917189121246,0.060475658625364304,0.11667526513338089
1660273466635788500,1.06178857421875,-0.2626720666885376,0.0806342139840126,0.0806342139840126
1660273466637789400,1.06378955078125,-0.27488934993743896,0.09040805697441101,0.06414084881544113
1660273466639790300,1.065790283203125,-0.29626965522766113,0.10751228034496307,0.02932153269648552
1660273466641790700,1.067790771484375,-0.31642818450927734,0.13072516024112701,0
1660273466643790600,1.06979052734375,-0.32681289315223694,0.1417207419872284,-0.01466076634824276
1660273466645790700,1.071790771484375,-0.3494149148464203,0.16004669666290283,-0.04092797264456749
1660273466647790600,1.07379052734375,-0.36529740691185,0.17959438264369965,-0.0659734457731247
1660273466649790500,1.07579052734375,-0.3738495409488678,0.18814650177955627,-0.07391469180583954
1660273466651790600,1.07779052734375,-0.3878994286060333,0.20525072515010834,-0.0959058403968811
1660273466653790500,1.07979052734375,-0.40194934606552124,0.21930062770843506,-0.1160643994808197
1660273466655790600,1.08179052734375,-0.40683624148368835,0.22602014243602753,-0.12278391420841217
1660273466657789700,1.083789794921875,-0.4331034719944,0.2675589919090271,-0.16798794269561768
1660273466659788800,1.085788818359375,-0.4331034719944,0.2675589919090271,-0.16798794269561768
1660273466661788000,1.087787841796875,-0.4331034719944,0.2675589919090271,-0.16798794269561768
1660273466663787000,1.089787109375,-0.4331034719944,0.2675589919090271,-0.16798794269561768
1660273466665786000,1.0917861328125,-0.4349360466003418,0.2724458873271942,-0.1716531366109848
1660273466667786000,1.093785888671875,-0.4343251883983612,0.2742784917354584,-0.17348572611808777
1660273466669785900,1.095785888671875,-0.43676865100860596,0.2785545587539673,-0.18020524084568024
1660273466671786000,1.097785888671875,-0.4392121136188507,0.27977627515792847,-0.18020524084568024
1660273466673785900,1.099785888671875,-0.4355469346046448,0.28099802136421204,-0.1820378452539444
1660273466675786000,1.101785888671875,-0.4355469346046448,0.2822197377681732,-0.18081611394882202
1660273466677787000,1.103786865234375,-0.43188172578811646,0.2816088795661926,-0.1820378452539444
1660273466679787800,1.105787841796875,-0.4306600093841553,0.2828305959701538,-0.1814269721508026
1660273466681788700,1.10778857421875,-0.4251621961593628,0.2816088795661926,-0.17776179313659668
1660273466683789600,1.10978955078125,-0.42149701714515686,0.2828305959701538,-0.16982053220272064
1660273466685789700,1.111789794921875,-0.4184426963329315,0.2822197377681732,-0.16432274878025055
1660273466687789600,1.11378955078125,-0.413555771112442,0.28527405858039856,-0.15943582355976105
1660273466689789700,1.115789794921875,-0.40744712948799133,0.2877175211906433,-0.1508837193250656
1660273466691789800,1.117789794921875,-0.40622538328170776,0.29077184200286865,-0.14477506279945374
1660273466693789700,1.119789794921875,-0.3988949954509735,0.29138273000717163,-0.1368338167667389
1660273466695790000,1.1217900390625,-0.39645153284072876,0.294437050819397,-0.12522737681865692
1660273466697789200,1.1237890625,-0.3701843321323395,0.3225368559360504,-0.06719517707824707
1660273466699788300,1.125788330078125,-0.36529740691185,0.32498031854629517,-0.05925392732024193
1660273466701787400,1.127787353515625,-0.3628539443016052,0.3280346393585205,-0.0507018156349659
1660273466703786500,1.129786376953125,-0.3628539443016052,0.3280346393585205,-0.0507018156349659
1660273466705785900,1.131785888671875,-0.3628539443016052,0.3280346393585205,-0.0507018156349659
1660273466707785200,1.13378515625,-0.3628539443016052,0.3280346393585205,-0.0507018156349659
1660273466709785000,1.13578515625,-0.3585779070854187,0.33047810196876526,-0.04092797264456749
1660273466711785200,1.13778515625,-0.34758231043815613,0.33719760179519653,-0.021991148591041565
1660273466713785300,1.139785400390625,-0.3378084897994995,0.342695415019989,-0.00427605677396059
1660273466715785200,1.14178515625,-0.3323107063770294,0.3445279896259308,0.004886921960860491
1660273466717791200,1.143791259765625,-0.3219259977340698,0.3494149148464203,0.02382374368607998
1660273466719785200,1.14578515625,-0.3072652220726013,0.3494149148464203,0.04337143152952194
1660273466721782300,1.1477822265625,-0.3017674386501312,0.34758231043815613,0.05253441259264946
1660273466723780400,1.1497802734375,-0.2889392673969269,0.3494149148464203,0.06963863968849182
1660273466725778400,1.1517783203125,-0.2779437005519867,0.34574973583221436,0.08857546001672745
1660273466727777000,1.153777099609375,-0.2718350291252136,0.34513887763023376,0.09407325088977814
1660273466729774000,1.155774169921875,-0.2583959996700287,0.3384193480014801,0.11178833991289139
1660273466731773000,1.15777294921875,-0.24556782841682434,0.3335324227809906,0.12461651116609573
1660273466733772000,1.15977197265625,-0.2376265823841095,0.33169981837272644,0.1319468915462494
1660273466735769900,1.161769775390625,-0.22479841113090515,0.3274237811565399,0.14355333149433136
1660273466737766700,1.1637666015625,-0.2015855312347412,0.313373863697052,0.16249015927314758
1660273466739766000,1.16576611328125,-0.2015855312347412,0.313373863697052,0.16249015927314758
1660273466741765400,1.167765380859375,-0.1869247704744339,0.3078760802745819,0.1716531366109848
1660273466743765000,1.169764892578125,-0.17287486791610718,0.29504790902137756,0.182648703455925
1660273466745764400,1.171764404296875,-0.16737708449363708,0.2926044464111328,0.18387043476104736
1660273466747764500,1.173764404296875,-0.15332718193531036,0.28038713335990906,0.192422553896904
1660273466749763800,1.175763916015625,-0.13927727937698364,0.26572638750076294,0.20036379992961884
1660273466751763500,1.177763427734375,-0.1313360333442688,0.26083946228027344,0.2015855312347412
1660273466753763000,1.17976318359375,-0.12034045159816742,0.24556782841682434,0.20891591906547546
1660273466755762000,1.181761962890625,-0.10690141469240189,0.23273965716362,0.21013765037059784
1660273466757761800,1.18376171875,-0.1014036312699318,0.22663100063800812,0.21380282938480377
1660273466759761400,1.185761474609375,-0.0910189226269722,0.21441370248794556,0.21868975460529327
1660273466761761000,1.187760986328125,-0.07941248267889023,0.2015855312347412,0.21868975460529327
1660273466763761000,1.189760986328125,-0.07513642311096191,0.192422553896904,0.21991148591041565
1660273466765760500,1.191760498046875,-0.06658431142568588,0.1814269721508026,0.21991148591041565
1660273466767760400,1.193760498046875,-0.05803219974040985,0.16554448008537292,0.2174680233001709
1660273466769760300,1.19576025390625,-0.05742133408784866,0.15882496535778046,0.22113321721553802
1660273466771759900,1.197759765625,-0.05009094998240471,0.14233160018920898,0.21868975460529327
1660273466773759700,1.199759765625,-0.04764748737215996,0.1258382350206375,0.21441370248794556
1660273466775759400,1.20175927734375,-0.04398229718208313,0.11911872029304504,0.21135938167572021
1660273466777758200,1.20375830078125,-0.04459316283464432,0.09224065393209457,0.2021963894367218
1660273466779757300,1.20575732421875,-0.04459316283464432,0.09224065393209457,0.2021963894367218
1660273466781757400,1.20775732421875,-0.048258353024721146,0.08429940044879913,0.19608774781227112
1660273466783757300,1.20975732421875,-0.0507018156349659,0.07391469180583954,0.1869247704744339
1660273466785757400,1.21175732421875,-0.05375614017248154,0.06291911751031876,0.1765400618314743
1660273466787757000,1.213757080078125,-0.05619960278272629,0.056810468435287476,0.17043140530586243
1660273466789757400,1.21575732421875,-0.06291911751031876,0.0507018156349659,0.1612684279680252
1660273466791757600,1.217757568359375,-0.06902777403593063,0.04703662544488907,0.1508837193250656
1660273466793757400,1.21975732421875,-0.07391469180583954,0.04398229718208313,0.14294247329235077
1660273466795757800,1.2217578125,-0.07941248267889023,0.0403171069920063,0.13255776464939117
1660273466797758700,1.2237587890625,-0.08979719132184982,0.04214970022439957,0.11911872029304504
1660273466799758800,1.2257587890625,-0.09162978827953339,0.04337143152952194,0.11667526513338089
1660273466801759000,1.227759033203125,-0.1014036312699318,0.04581489413976669,0.10323622822761536
1660273466803758800,1.2297587890625,-0.10812314599752426,0.05192354694008827,0.09346238523721695
1660273466805759000,1.231759033203125,-0.1111774742603302,0.054367005825042725,0.08796459436416626
1660273466807758600,1.233758544921875,-0.12339477986097336,0.05742133408784866,0.0757472887635231
1660273466809758700,1.2357587890625,-0.13072516024112701,0.06169738993048668,0.06475171446800232
1660273466811758600,1.237758544921875,-0.13561208546161652,0.06230825558304787,0.05619960278272629
1660273466813758700,1.2397587890625,-0.14844025671482086,0.06536258012056351,0.04886921867728233
1660273466815759000,1.241759033203125,-0.15577064454555511,0.06475171446800232,0.033597588539123535
1660273466817758200,1.24375830078125,-0.19792033731937408,0.08246681094169617,-0.021380282938480377
1660273466819757300,1.24575732421875,-0.19792033731937408,0.08246681094169617,-0.021380282938480377
1660273466821756400,1.24775634765625,-0.19792033731937408,0.08246681094169617,-0.021380282938480377
1660273466823755500,1.249755615234375,-0.19792033731937408,0.08246681094169617,-0.021380282938480377
1660273466825755400,1.25175537109375,-0.20463985204696655,0.08796459436416626,-0.027488935738801956
1660273466827755300,1.25375537109375,-0.21624629199504852,0.09529497474431992,-0.04459316283464432
1660273466829755400,1.25575537109375,-0.22052235901355743,0.1014036312699318,-0.05192354694008827
1660273466831755000,1.257755126953125,-0.23457226157188416,0.11301007121801376,-0.06719517707824707
1660273466833755100,1.259755126953125,-0.242513507604599,0.1270599663257599,-0.08307767659425735
1660273466835755000,1.261755126953125,-0.252287358045578,0.13011430203914642,-0.09285151958465576
1660273466837756000,1.263755859375,-0.2577851414680481,0.14538592100143433,-0.11056660860776901
1660273466839756800,1.2657568359375,-0.26511552929878235,0.15332718193531036,-0.12950342893600464
1660273466841757000,1.2677568359375,-0.2681698501110077,0.15882496535778046,-0.13805554807186127
1660273466843757000,1.269757080078125,-0.2730567753314972,0.1667662113904953,-0.1563815027475357
1660273466845757000,1.2717568359375,-0.2767219543457031,0.1765400618314743,-0.17409659922122955
1660273466847757300,1.27375732421875,-0.28099802136421204,0.17837265133857727,-0.18509216606616974
1660273466849757400,1.27575732421875,-0.2791654169559479,0.1875356286764145,-0.20341812074184418
1660273466851757300,1.27775732421875,-0.2785545587539673,0.19486601650714874,-0.21930062770843506
1660273466853757200,1.279757080078125,-0.2773328125476837,0.1973094791173935,-0.22846360504627228
1660273466855757300,1.28175732421875,-0.2736676335334778,0.20402899384498596,-0.24373523890972137
1660273466857756400,1.28375634765625,-0.23884831368923187,0.21563543379306793,-0.2883284091949463
1660273466859755500,1.285755615234375,-0.23884831368923187,0.21563543379306793,-0.2883284091949463
1660273466861754600,1.287754638671875,-0.23884831368923187,0.21563543379306793,-0.2883284091949463
1660273466863753700,1.289753662109375,-0.2321287989616394,0.21441370248794556,-0.294437050819397
1660273466865753900,1.29175390625,-0.2321287989616394,0.21441370248794556,-0.294437050819397
1660273466867753700,1.293753662109375,-0.21991148591041565,0.21563543379306793,-0.30115658044815063
1660273466869753900,1.29575390625,-0.20402899384498596,0.21380282938480377,-0.31093040108680725
1660273466871753700,1.297753662109375,-0.1966986060142517,0.20952677726745605,-0.3139847218990326
1660273466873753300,1.29975341796875,-0.182648703455925,0.20463985204696655,-0.3188716471195221
1660273466875753500,1.30175341796875,-0.16798794269561768,0.19914206862449646,-0.323147714138031
1660273466877754400,1.30375439453125,-0.1612684279680252,0.19547687470912933,-0.3280346393585205
1660273466879755300,1.30575537109375,-0.14538592100143433,0.18570303916931152,-0.33047810196876526
1660273466881756200,1.307756103515625,-0.13500121235847473,0.1765400618314743,-0.33658674359321594
1660273466883757000,1.309757080078125,-0.1264491081237793,0.16798794269561768,-0.33719760179519653
1660273466885757200,1.311757080078125,-0.11301007121801376,0.1563815027475357,-0.34086281061172485
1660273466887757000,1.313757080078125,-0.09957103431224823,0.14355333149433136,-0.34636059403419495
1660273466889757200,1.315757080078125,-0.09468411654233932,0.13439035415649414,-0.3494149148464203
1660273466891757300,1.31775732421875,-0.0806342139840126,0.11911872029304504,-0.35674530267715454
1660273466893757000,1.3197568359375,-0.06902777403593063,0.10506882518529892,-0.3628539443016052
1660273466895756800,1.3217568359375,-0.0659734457731247,0.09651670604944229,-0.36590829491615295
1660273466897756000,1.323755859375,-0.03176499158143997,0.05619960278272629,-0.3933972120285034
1660273466899755000,1.325755126953125,-0.02871066704392433,0.05253441259264946,-0.40072759985923767
1660273466901754000,1.327754150390625,-0.02871066704392433,0.05253441259264946,-0.40072759985923767
1660273466903753200,1.329753173828125,-0.027488935738801956,0.05009094998240471,-0.40256020426750183
1660273466905752600,1.331752685546875,-0.027488935738801956,0.05009094998240471,-0.40256020426750183
1660273466907751700,1.333751708984375,-0.027488935738801956,0.05009094998240471,-0.40256020426750183
1660273466909751800,1.335751708984375,-0.02626720629632473,0.04764748737215996,-0.4092797040939331
1660273466911752000,1.337751953125,-0.02687807008624077,0.04459316283464432,-0.4178318381309509
1660273466913751800,1.339751708984375,-0.025656340643763542,0.04337143152952194,-0.42088615894317627
1660273466915752000,1.341751953125,-0.02687807008624077,0.042760565876960754,-0.43249258399009705
1660273466917751800,1.343751708984375,-0.028099801391363144,0.04459316283464432,-0.44165557622909546
1660273466919752000,1.345751953125,-0.028099801391363144,0.04642575979232788,-0.44776421785354614
1660273466921751800,1.347751708984375,-0.03176499158143997,0.05375614017248154,-0.45814892649650574
1660273466923752000,1.349751953125,-0.033597588539123535,0.05803219974040985,-0.4648684561252594
1660273466925751800,1.351751708984375,-0.03420845419168472,0.06414084881544113,-0.4715879559516907
1660273466927751700,1.353751708984375,-0.036041051149368286,0.07330382615327835,-0.47830748558044434
1660273466929751800,1.355751708984375,-0.0354301854968071,0.08552113175392151,-0.4862487316131592
1660273466931751700,1.357751708984375,-0.03787364438176155,0.09162978827953339,-0.4905247986316681
1660273466933751600,1.35975146484375,-0.03848451003432274,0.10567969083786011,-0.49357911944389343
1660273466935751400,1.36175146484375,-0.03787364438176155,0.12034045159816742,-0.4990769028663635
1660273466937748700,1.363748779296875,-0.03787364438176155,0.13500121235847473,-0.5009095072746277
1660273466939748600,1.36574853515625,-0.036651913076639175,0.14233160018920898,-0.5015203952789307
1660273466941748700,1.367748779296875,-0.03848451003432274,0.1563815027475357,-0.5009095072746277
1660273466943747000,1.3697470703125,-0.0354301854968071,0.16432274878025055,-0.5015203952789307
1660273466945747200,1.371747314453125,-0.036041051149368286,0.17409659922122955,-0.4948008358478546
1660273466947747000,1.3737470703125,-0.031154127791523933,0.18814650177955627,-0.48747047781944275
1660273466949747000,1.375746826171875,-0.029932396486401558,0.19058994948863983,-0.484416127204895
1660273466951746800,1.377746826171875,-0.02382374368607998,0.1973094791173935,-0.47830748558044434
1660273466953747000,1.379746826171875,-0.02076941914856434,0.19853121042251587,-0.46670106053352356
1660273466955745300,1.381745361328125,-0.018325956538319588,0.19853121042251587,-0.4612032473087311
1660273466957745000,1.383744873046875,-0.010995574295520782,0.19120082259178162,-0.4502076804637909
1660273466959745000,1.3857451171875,-0.006108652334660292,0.18325957655906677,-0.4398229718208313
1660273466961745000,1.387744873046875,-0.0024434609804302454,0.17592918872833252,-0.4349360466003418
1660273466963745000,1.3897451171875,0.0024434609804302454,0.16004669666290283,-0.42210787534713745
1660273466965745700,1.39174560546875,0.007941247895359993,0.13805554807186127,-0.4098905920982361
1660273466967745800,1.393745849609375,0.010995574295520782,0.12767083942890167,-0.4050036668777466
1660273466969745700,1.39574560546875,0.012217304669320583,0.1007927656173706,-0.39217549562454224
1660273466971745800,1.397745849609375,0.014049900695681572,0.06963863968849182,-0.3842342495918274
1660273466973745700,1.39974560546875,0.01466076634824276,0.0555887371301651,-0.3781255781650543
1660273466975745500,1.40174560546875,0.01710422709584236,0.02382374368607998,-0.3689626157283783
1660273466977744600,1.40374462890625,0.019547687843441963,-0.04337143152952194,-0.35246923565864563
1660273466979743700,1.40574365234375,0.019547687843441963,-0.04337143152952194,-0.35246923565864563
1660273466981743900,1.407743896484375,0.02321287989616394,-0.05742133408784866,-0.34636059403419495
1660273466983743700,1.40974365234375,0.02076941914856434,-0.08735372871160507,-0.3384193480014801
1660273466985743600,1.41174365234375,0.02382374368607998,-0.1007927656173706,-0.33475416898727417
1660273466987743700,1.41374365234375,0.02076941914856434,-0.13011430203914642,-0.3243694305419922
1660273466989743600,1.41574365234375,0.025656340643763542,-0.15577064454555511,-0.31459560990333557
1660273466991743700,1.41774365234375,0.027488935738801956,-0.16798794269561768,-0.3090978264808655
1660273466993744000,1.419743896484375,0.028099801391363144,-0.18875735998153687,-0.30054569244384766
1660273466995743200,1.4217431640625,0.03237585723400116,-0.20830504596233368,-0.28955012559890747
1660273466997744000,1.423744140625,0.03298672288656235,-0.21563543379306793,-0.2834414839744568
1660273466999744300,1.425744140625,0.04092797264456749,-0.22846360504627228,-0.27000242471694946
1660273467001744400,1.427744384765625,0.04581489413976669,-0.23273965716362,-0.2565633952617645
1660273467003745000,1.4297451171875,0.05009094998240471,-0.23090706765651703,-0.24617868661880493
1660273467005745000,1.431744873046875,0.05803219974040985,-0.2278527319431305,-0.22907446324825287
1660273467007745000,1.4337451171875,0.06719517707824707,-0.21380282938480377,-0.2070833146572113
1660273467009745000,1.435744873046875,0.0757472887635231,-0.2015855312347412,-0.1973094791173935
1660273467011745000,1.4377451171875,0.0861319974064827,-0.17348572611808777,-0.17104226350784302
1660273467013745000,1.439744873046875,0.1007927656173706,-0.13805554807186127,-0.1411098688840866
1660273467015745800,1.441745849609375,0.10812314599752426,-0.1160643994808197,-0.1258382350206375
1660273467017745200,1.4437451171875,0.1618792861700058,0.07635815441608429,0.015882495790719986
1660273467019744300,1.445744140625,0.17104226350784302,0.10751228034496307,0.04153883829712868
1660273467021743400,1.447743408203125,0.17104226350784302,0.10751228034496307,0.04153883829712868
1660273467023742500,1.449742431640625,0.17104226350784302,0.10751228034496307,0.04153883829712868
1660273467025742000,1.4517421875,0.1765400618314743,0.13927727937698364,0.06414084881544113
1660273467027742000,1.453741943359375,0.18570303916931152,0.1716531366109848,0.0910189226269722
1660273467029741800,1.455741943359375,0.2021963894367218,0.23457226157188416,0.13866640627384186
1660273467031742000,1.457741943359375,0.21807889640331268,0.29016098380088806,0.18875735998153687
1660273467033741800,1.459741943359375,0.22357667982578278,0.31642818450927734,0.21380282938480377
1660273467035742000,1.461741943359375,0.23518311977386475,0.36529740691185,0.2620611786842346
1660273467037742800,1.463742919921875,0.24556782841682434,0.4031710624694824,0.30543261766433716
1660273467039743700,1.46574365234375,0.25045475363731384,0.4178318381309509,0.3274237811565399
1660273467041743600,1.46774365234375,0.2583959996700287,0.43615779280662537,0.36651915311813354
1660273467043743700,1.46974365234375,0.2632829248905182,0.4440990388393402,0.39706242084503174
1660273467045743600,1.47174365234375,0.2669481039047241,0.44287729263305664,0.4098905920982361
1660273467047743700,1.47374365234375,0.2669481039047241,0.4349360466003418,0.43127086758613586
1660273467049744000,1.475743896484375,0.27000242471694946,0.4196644127368927,0.44776421785354614
1660273467051743700,1.47774365234375,0.2730567753314972,0.40744712948799133,0.4544837474822998
1660273467053743600,1.47974365234375,0.27488934993743896,0.375071257352829,0.46364670991897583
1660273467055744300,1.481744140625,0.28038713335990906,0.33597588539123535,0.4660901725292206
1660273467057743400,1.483743408203125,0.30482175946235657,0.13988813757896423,0.4306600093841553
1660273467059742500,1.485742431640625,0.30482175946235657,0.13988813757896423,0.4306600093841553
1660273467061741600,1.487741455078125,0.30482175946235657,0.13988813757896423,0.4306600093841553
1660273467063740700,1.48974072265625,0.30482175946235657,0.13988813757896423,0.4306600093841553
1660273467065740500,1.491740478515625,0.30604347586631775,0.1062905490398407,0.42088615894317627
1660273467067741700,1.49374169921875,0.3127630054950714,0.036041051149368286,0.394008070230484
1660273467069741600,1.495741455078125,0.3139847218990326,0.0012217304902151227,0.38179078698158264
1660273467071741700,1.49774169921875,0.31642818450927734,-0.06841690838336945,0.3481931984424591
1660273467073741800,1.499741943359375,0.31642818450927734,-0.13805554807186127,0.3127630054950714
1660273467075741700,1.50174169921875,0.3188716471195221,-0.16982053220272064,0.2938261926174164
1660273467077742600,1.50374267578125,0.3170390725135803,-0.23579397797584534,0.252287358045578
1660273467079743500,1.505743408203125,0.3176499307155609,-0.29138273000717163,0.2076941877603531
1660273467081744400,1.507744384765625,0.3139847218990326,-0.3176499307155609,0.1875356286764145
1660273467083745300,1.509745361328125,0.3127630054950714,-0.36102136969566345,0.13744467496871948
1660273467085745400,1.511745361328125,0.3072652220726013,-0.394618958234787,0.0910189226269722
1660273467087745000,1.5137451171875,0.303600013256073,-0.4086688458919525,0.06719517707824707
1660273467089745000,1.515744873046875,0.29993483424186707,-0.4251621961593628,0.018936822190880775
1660273467091745000,1.5177451171875,0.29016098380088806,-0.43615779280662537,-0.021991148591041565
1660273467093745000,1.519744873046875,0.2877175211906433,-0.43615779280662537,-0.04642575979232788
1660273467095745000,1.5217451171875,0.2822197377681732,-0.4306600093841553,-0.08857546001672745
1660273467097744100,1.523744140625,0.24373523890972137,-0.31154128909111023,-0.19914206862449646
1660273467099743200,1.5257431640625,0.23945917189121246,-0.28466320037841797,-0.20525072515010834
1660273467101742300,1.527742431640625,0.23579397797584534,-0.2583959996700287,-0.2125810980796814
1660273467103741400,1.529741455078125,0.23579397797584534,-0.2583959996700287,-0.2125810980796814
1660273467105741300,1.5317412109375,0.23579397797584534,-0.2583959996700287,-0.2125810980796814
1660273467107740400,1.533740478515625,0.23579397797584534,-0.2583959996700287,-0.2125810980796814
1660273467109740300,1.535740234375,0.22540926933288574,-0.19608774781227112,-0.21868975460529327
1660273467111740400,1.537740478515625,0.21930062770843506,-0.16004669666290283,-0.22113321721553802
1660273467113740300,1.539740234375,0.21074850857257843,-0.08552113175392151,-0.21868975460529327
1660273467115740400,1.541740478515625,0.2021963894367218,-0.005497787147760391,-0.20891591906547546
1660273467117750300,1.543750244140625,0.2021963894367218,0.039095375686883926,-0.20036379992961884
1660273467119740400,1.545740478515625,0.19975294172763824,0.13011430203914642,-0.17837265133857727
1660273467121735400,1.5477353515625,0.19914206862449646,0.22540926933288574,-0.14844025671482086
1660273467123732000,1.54973193359375,0.19792033731937408,0.27488934993743896,-0.13255776464939117
1660273467125729500,1.5517294921875,0.2028072625398636,0.3732386529445648,-0.09285151958465576
1660273467127727600,1.5537275390625,0.2125810980796814,0.4715879559516907,-0.05375614017248154
1660273467129726000,1.555725830078125,0.21563543379306793,0.5186246037483215,-0.02871066704392433
1660273467131724300,1.557724365234375,0.2278527319431305,0.6120869517326355,0.02076941914856434
1660273467133723000,1.559722900390625,0.2431243658065796,0.6963863968849182,0.06963863968849182
1660273467135721700,1.5617216796875,0.24984388053417206,0.7354817390441895,0.09773843735456467
1660273467137718000,1.563718017578125,0.2767219543457031,0.8399397134780884,0.17409659922122955
1660273467139717000,1.565717041015625,0.2871066629886627,0.8674286603927612,0.19975294172763824
1660273467141716200,1.56771630859375,0.29565876722335815,0.8943067193031311,0.22418753802776337
1660273467143715300,1.56971533203125,0.31642818450927734,0.9352346658706665,0.27122417092323303
1660273467145713700,1.571713623046875,0.33047810196876526,0.9639453291893005,0.3194825351238251
1660273467147713000,1.573713134765625,0.3384193480014801,0.9761626720428467,0.34025195240974426
1660273467149712400,1.57571240234375,0.35613444447517395,0.9908234477043152,0.3836233615875244
1660273467151711700,1.577711669921875,0.3701843321323395,0.9944885969161987,0.4251621961593628
1660273467153711400,1.57971142578125,0.37751471996307373,0.9932668805122375,0.4453207552433014
1660273467155710700,1.581710693359375,0.3903428912162781,0.9816604256629944,0.4789183437824249
1660273467157710300,1.58371044921875,0.40683624148368835,0.9584475755691528,0.5119050741195679
1660273467159709700,1.585709716796875,0.41111230850219727,0.9431759119033813,0.5271766781806946
1660273467161709300,1.587709228515625,0.4251621961593628,0.9059131741523743,0.5540547966957092
1660273467163708400,1.58970849609375,0.4349360466003418,0.8607091307640076,0.5778785347938538
1660273467165708000,1.5917080078125,0.4392121136188507,0.8326093554496765,0.5870414972305298
1660273467167708200,1.593708251953125,0.44776421785354614,0.7715228199958801,0.6023131608963013
1660273467169707300,1.595707275390625,0.45204028487205505,0.7415903806686401,0.608421802520752
1660273467171707000,1.597706787109375,0.4605923891067505,0.6731734871864319,0.6188064813613892
1660273467173706500,1.59970654296875,0.46670106053352356,0.5998696684837341,0.6249151229858398
1660273467175706000,1.6017060546875,0.4691445231437683,0.5619960427284241,0.6230825781822205
1660273467177704700,1.60370458984375,0.475253164768219,0.403781920671463,0.618195652961731
1660273467179703800,1.605703857421875,0.475253164768219,0.403781920671463,0.618195652961731
1660273467181704000,1.607703857421875,0.4740314185619354,0.3585779070854187,0.6188064813613892
1660273467183703800,1.609703857421875,0.4789183437824249,0.28038713335990906,0.6047565937042236
1660273467185704200,1.6117041015625,0.4758640229701996,0.19608774781227112,0.5931501388549805
1660273467187704000,1.6137041015625,0.47280970215797424,0.1563815027475357,0.5864306092262268
1660273467189704000,1.615703857421875,0.47342056035995483,0.07819075137376785,0.5674937963485718
1660273467191704000,1.6177041015625,0.46670106053352356,0.0012217304902151227,0.5461135506629944
1660273467193704000,1.619703857421875,0.46303585171699524,-0.03420845419168472,0.53328537940979
1660273467195704000,1.6217041015625,0.45631635189056396,-0.1014036312699318,0.5094616413116455
1660273467197705000,1.623705078125,0.44776421785354614,-0.16737708449363708,0.4813618063926697
1660273467199704800,1.625704833984375,0.44287729263305664,-0.2015855312347412,0.4660901725292206
1660273467201705000,1.627705078125,0.4343251883983612,-0.2528982162475586,0.4349360466003418
1660273467203705000,1.629705078125,0.42638394236564636,-0.3023782968521118,0.403781920671463
1660273467205705500,1.63170556640625,0.42210787534713745,-0.32070425152778625,0.38667771220207214
1660273467207705300,1.633705322265625,0.413555771112442,-0.35613444447517395,0.3536909818649292
1660273467209705500,1.63570556640625,0.4080579876899719,-0.3836233615875244,0.3194825351238251
1660273467211705300,1.637705322265625,0.4031710624694824,-0.3927863538265228,0.3023782968521118
1660273467213705200,1.639705322265625,0.39645153284072876,-0.40744712948799133,0.2669481039047241
1660273467215704600,1.64170458984375,0.39584067463874817,-0.4147774875164032,0.23335053026676178
1660273467217703400,1.643703369140625,0.3836233615875244,-0.4129449129104614,0.11728613078594208
1660273467219702500,1.64570263671875,0.3836233615875244,-0.4129449129104614,0.11728613078594208
1660273467221702000,1.647701904296875,0.3836233615875244,-0.4129449129104614,0.11728613078594208
1660273467223702000,1.649701904296875,0.3836233615875244,-0.4129449129104614,0.11728613078594208
1660273467225702000,1.651701904296875,0.3787364661693573,-0.4092797040939331,0.1007927656173706
1660273467227701800,1.65370166015625,0.3781255781650543,-0.40256020426750183,0.06963863968849182
1660273467229702100,1.6557021484375,0.3787364661693573,-0.394618958234787,0.0507018156349659
1660273467231702000,1.657701904296875,0.37201693654060364,-0.3793473243713379,0.018936822190880775
1660273467233702000,1.659701904296875,0.3689626157283783,-0.36590829491615295,-0.010995574295520782
1660273467235702000,1.661701904296875,0.36651915311813354,-0.3585779070854187,-0.025045474991202354
1660273467237703000,1.663702880859375,0.3640756905078888,-0.34086281061172485,-0.05375614017248154
1660273467239703800,1.665703857421875,0.3591887652873993,-0.32131510972976685,-0.08307767659425735
1660273467241703700,1.66770361328125,0.3543018400669098,-0.31459560990333557,-0.09651670604944229
1660273467243703800,1.669703857421875,0.3500257730484009,-0.29504790902137756,-0.12278391420841217
1660273467245703400,1.671703369140625,0.3439171314239502,-0.27550023794174194,-0.14844025671482086
1660273467247703300,1.673703369140625,0.3390302062034607,-0.2638937830924988,-0.15882496535778046
1660273467249703400,1.675703369140625,0.3335324227809906,-0.24678955972194672,-0.1820378452539444
1660273467251703600,1.67770361328125,0.32559117674827576,-0.22602014243602753,-0.20341812074184418
1660273467253703400,1.679703369140625,0.32070425152778625,-0.21868975460529327,-0.21074850857257843
1660273467255703600,1.68170361328125,0.31581732630729675,-0.19975294172763824,-0.23029619455337524
1660273467257702700,1.68370263671875,0.2877175211906433,-0.13561208546161652,-0.2828305959701538
1660273467259701800,1.68570166015625,0.28527405858039856,-0.12889257073402405,-0.2828305959701538
1660273467261700900,1.687700927734375,0.2822197377681732,-0.12095131725072861,-0.2871066629886627
1660273467263700000,1.689699951171875,0.2822197377681732,-0.12095131725072861,-0.2871066629886627
1660273467265698800,1.69169873046875,0.2822197377681732,-0.12095131725072861,-0.2871066629886627
1660273467267698000,1.693697998046875,0.2822197377681732,-0.12095131725072861,-0.2871066629886627
1660273467269698000,1.695697998046875,0.27550023794174194,-0.10567969083786011,-0.29016098380088806
1660273467271698400,1.697698486328125,0.27122417092323303,-0.09773843735456467,-0.2877175211906433
1660273467273698300,1.6996982421875,0.26450464129447937,-0.08735372871160507,-0.2871066629886627
1660273467275699200,1.70169921875,0.2583959996700287,-0.0757472887635231,-0.2828305959701538
1660273467277699300,1.70369921875,0.251676470041275,-0.07024950534105301,-0.2816088795661926
1660273467279719200,1.70571923828125,0.24862214922904968,-0.06169738993048668,-0.27000242471694946
1660273467281719300,1.70771923828125,0.2376265823841095,-0.05375614017248154,-0.2565633952617645
1660273467283719200,1.70971923828125,0.23518311977386475,-0.04764748737215996,-0.24862214922904968
1660273467285719300,1.71171923828125,0.22602014243602753,-0.03726277872920036,-0.22907446324825287
1660273467287719000,1.713718994140625,0.2217440903186798,-0.02687807008624077,-0.2076941877603531
1660273467289718800,1.71571875,0.2168571650981903,-0.02076941914856434,-0.1966986060142517
1660273467291718700,1.71771875,0.2125810980796814,-0.007941247895359993,-0.16982053220272064
1660273467293718500,1.719718505859375,0.21135938167572021,0.003054326167330146,-0.1411098688840866
1660273467295718400,1.721718505859375,0.20891591906547546,0.009162978269159794,-0.1258382350206375
1660273467297715700,1.7237158203125,0.20463985204696655,0.06780604273080826,0.030543262138962746
1660273467299713300,1.72571337890625,0.20463985204696655,0.06780604273080826,0.030543262138962746
1660273467301711000,1.727711181640625,0.20402899384498596,0.07452555745840073,0.04581489413976669
1660273467303709000,1.729708984375,0.20586158335208893,0.0806342139840126,0.06536258012056351
1660273467305709000,1.731708984375,0.20586158335208893,0.0806342139840126,0.06536258012056351
1660273467307708700,1.733708740234375,0.20586158335208893,0.0806342139840126,0.06536258012056351
1660273467309708500,1.73570849609375,0.2064724564552307,0.08918632566928864,0.08368854224681854
1660273467311708700,1.737708740234375,0.20891591906547546,0.10323622822761536,0.12400564551353455
1660273467313708500,1.73970849609375,0.20952677726745605,0.10934487730264664,0.14416420459747314
1660273467315708700,1.741708740234375,0.21074850857257843,0.12400564551353455,0.17898350954055786
1660273467317707800,1.743707763671875,0.21319197118282318,0.13805554807186127,0.21441370248794556
1660273467319707600,1.745707763671875,0.21441370248794556,0.14233160018920898,0.23029619455337524
1660273467321707800,1.747707763671875,0.21563543379306793,0.15454891324043274,0.26511552929878235
1660273467323707600,1.749707763671875,0.22052235901355743,0.16249015927314758,0.29565876722335815
1660273467325707800,1.751707763671875,0.22357667982578278,0.16310101747512817,0.3072652220726013
1660273467327707600,1.753707763671875,0.22357667982578278,0.17043140530586243,0.33658674359321594
1660273467329707800,1.755707763671875,0.22602014243602753,0.1722639948129654,0.36529740691185
1660273467331707600,1.757707763671875,0.22846360504627228,0.17470745742321014,0.375071257352829
1660273467333707800,1.759707763671875,0.23090706765651703,0.17959438264369965,0.3995058834552765
1660273467335707600,1.761707763671875,0.2321287989616394,0.18081611394882202,0.42149701714515686
1660273467337705000,1.763705078125,0.23396138846874237,0.1814269721508026,0.4398229718208313
1660273467339705000,1.765705078125,0.23273965716362,0.17959438264369965,0.4489859640598297
1660273467341705000,1.767705078125,0.2321287989616394,0.17837265133857727,0.46364670991897583
1660273467343705000,1.769705078125,0.23090706765651703,0.17776179313659668,0.46792277693748474
1660273467345705000,1.771705078125,0.2278527319431305,0.1716531366109848,0.4807509481906891
1660273467347705000,1.773705078125,0.2223549485206604,0.1667662113904953,0.48869219422340393
1660273467349705200,1.775705322265625,0.2217440903186798,0.1661553531885147,0.4899139404296875
1660273467351705000,1.777705078125,0.21502456068992615,0.16004669666290283,0.49724429845809937
1660273467353705200,1.779705322265625,0.21074850857257843,0.15454891324043274,0.49846604466438293
1660273467355705300,1.781705322265625,0.2070833146572113,0.15393804013729095,0.49785518646240234
1660273467357704700,1.78370458984375,0.20402899384498596,0.1459967941045761,0.4954117238521576
1660273467359704800,1.785704833984375,0.19608774781227112,0.13988813757896423,0.48685958981513977
1660273467361705000,1.787705078125,0.19303341209888458,0.1362229436635971,0.4856378734111786
1660273467363705000,1.789705078125,0.18509216606616974,0.1270599663257599,0.475253164768219
1660273467365705000,1.791705078125,0.17592918872833252,0.1160643994808197,0.46547931432724
1660273467367705000,1.793705078125,0.17531833052635193,0.11301007121801376,0.45753806829452515
1660273467369705000,1.795705078125,0.1667662113904953,0.10201449692249298,0.44593164324760437
1660273467371705000,1.797705078125,0.1563815027475357,0.08979719132184982,0.43188172578811646
1660273467373705000,1.799705078125,0.15393804013729095,0.08674286305904388,0.42271876335144043
1660273467375705000,1.801705078125,0.14416420459747314,0.07391469180583954,0.40683624148368835
1660273467377704200,1.8037041015625,0.12461651116609573,0.051312681287527084,0.3683517575263977
1660273467379703300,1.805703369140625,0.12461651116609573,0.051312681287527084,0.3683517575263977
1660273467381703400,1.807703369140625,0.1215621829032898,0.04337143152952194,0.3597996234893799
1660273467383703300,1.809703369140625,0.10873401165008545,0.033597588539123535,0.34025195240974426
1660273467385703400,1.811703369140625,0.1062905490398407,0.02932153269648552,0.33047810196876526
1660273467387703600,1.81370361328125,0.0959058403968811,0.022602014243602753,0.30970868468284607
1660273467389703400,1.815703369140625,0.08552113175392151,0.01710422709584236,0.28955012559890747
1660273467391703600,1.81770361328125,0.08307767659425735,0.013439035043120384,0.2791654169559479
1660273467393703400,1.819703369140625,0.07391469180583954,0.010995574295520782,0.2577851414680481
1660273467395703600,1.82170361328125,0.06475171446800232,0.01160643994808197,0.24007004499435425
1660273467397704400,1.823704345703125,0.060475658625364304,0.012217304669320583,0.22846360504627228
1660273467399704300,1.825704345703125,0.051312681287527084,0.012828170321881771,0.20830504596233368
1660273467401704200,1.8277041015625,0.04337143152952194,0.015271631069481373,0.18875735998153687
1660273467403704300,1.829704345703125,0.039095375686883926,0.018936822190880775,0.1771509200334549
1660273467405704200,1.8317041015625,0.03481931984424591,0.021991148591041565,0.15821409225463867
1660273467407704300,1.833704345703125,0.028099801391363144,0.028099801391363144,0.1362229436635971
1660273467409704200,1.8357041015625,0.02382374368607998,0.03237585723400116,0.1264491081237793
1660273467411704300,1.837704345703125,0.016493361443281174,0.03848451003432274,0.10690141469240189
1660273467413704200,1.8397041015625,0.012828170321881771,0.04642575979232788,0.08735372871160507
1660273467415704000,1.8417041015625,0.010995574295520782,0.05009094998240471,0.0757472887635231
1660273467417703700,1.84370361328125,-0.003054326167330146,0.08002334833145142,0.007941247895359993
1660273467419702800,1.845702880859375,-0.003054326167330146,0.08002334833145142,0.007941247895359993
1660273467421702000,1.847701904296875,-0.003054326167330146,0.08552113175392151,0.003054326167330146
1660273467423700700,1.84970068359375,-0.00733038317412138,0.08552113175392151,0.003054326167330146
1660273467425700900,1.851700927734375,-0.006719517521560192,0.09040805697441101,-0.006108652334660292
1660273467427701200,1.853701171875,-0.009773843921720982,0.09407325088977814,-0.01771509274840355
1660273467429702000,1.855701904296875,-0.012828170321881771,0.10751228034496307,-0.03420845419168472
1660273467431702000,1.857701904296875,-0.018936822190880775,0.11850785464048386,-0.05009094998240471
1660273467433702100,1.8597021484375,-0.018936822190880775,0.12400564551353455,-0.05742133408784866
1660273467435702000,1.861701904296875,-0.025656340643763542,0.1362229436635971,-0.07330382615327835
1660273467437703000,1.863702880859375,-0.03176499158143997,0.1472185254096985,-0.08979719132184982
1660273467439703800,1.865703857421875,-0.03298672288656235,0.1508837193250656,-0.09773843735456467
1660273467441704400,1.867704345703125,-0.039706241339445114,0.15515977144241333,-0.11239920556545258
1660273467443704600,1.86970458984375,-0.04581489413976669,0.16065755486488342,-0.12767083942890167
1660273467445704400,1.871704345703125,-0.04703662544488907,0.16310101747512817,-0.1319468915462494
1660273467447704000,1.8737041015625,-0.05192354694008827,0.16554448008537292,-0.14538592100143433
1660273467449704200,1.8757041015625,-0.06108652427792549,0.16249015927314758,-0.15943582355976105
1660273467451704000,1.8777041015625,-0.06352998316287994,0.1618792861700058,-0.16310101747512817
1660273467453704200,1.8797041015625,-0.06658431142568588,0.16004669666290283,-0.1765400618314743
1660273467455704000,1.8817041015625,-0.0708603709936142,0.15271630883216858,-0.18325957655906677
1660273467457703200,1.883703125,-0.09346238523721695,0.12767083942890167,-0.2070833146572113
1660273467459702500,1.88570263671875,-0.09346238523721695,0.12767083942890167,-0.2070833146572113
1660273467461701600,1.88770166015625,-0.09346238523721695,0.12767083942890167,-0.2070833146572113
1660273467463700700,1.88970068359375,-0.09346238523721695,0.12767083942890167,-0.2070833146572113
1660273467465700900,1.891700927734375,-0.09468411654233932,0.12339477986097336,-0.2070833146572113
1660273467467700700,1.89370068359375,-0.10384709388017654,0.12217304855585098,-0.21319197118282318
1660273467469700900,1.895700927734375,-0.10506882518529892,0.11728613078594208,-0.21380282938480377
1660273467471700700,1.89770068359375,-0.11239920556545258,0.11545353382825851,-0.2125810980796814
1660273467473700400,1.899700439453125,-0.12034045159816742,0.11545353382825851,-0.2119702398777008
1660273467475700200,1.9017001953125,-0.12339477986097336,0.11362093687057495,-0.21502456068992615
1660273467477701000,1.903701171875,-0.13072516024112701,0.1160643994808197,-0.21013765037059784
1660273467479702000,1.905701904296875,-0.13805554807186127,0.11545353382825851,-0.2064724564552307
1660273467481703000,1.907702880859375,-0.14233160018920898,0.11545353382825851,-0.20341812074184418
1660273467483703800,1.909703857421875,-0.14782938361167908,0.11850785464048386,-0.19853121042251587
1660273467485704000,1.911703857421875,-0.15515977144241333,0.1215621829032898,-0.19486601650714874
1660273467487703300,1.913703369140625,-0.15821409225463867,0.1215621829032898,-0.192422553896904
1660273467489702700,1.91570263671875,-0.1618792861700058,0.12522737681865692,-0.18509216606616974
1660273467491702800,1.917702880859375,-0.16798794269561768,0.1264491081237793,-0.17470745742321014
1660273467493702700,1.91970263671875,-0.17043140530586243,0.12828169763088226,-0.17104226350784302
1660273467495702500,1.92170263671875,-0.17409659922122955,0.12950342893600464,-0.16432274878025055
1660273467497701600,1.92370166015625,-0.1820378452539444,0.10812314599752426,-0.1319468915462494
1660273467499700700,1.92570068359375,-0.18509216606616974,0.10445795953273773,-0.12828169763088226
1660273467501699300,1.92769921875,-0.1814269721508026,0.09651670604944229,-0.1258382350206375
1660273467503698400,1.929698486328125,-0.1814269721508026,0.09651670604944229,-0.1258382350206375
1660273467505697500,1.931697509765625,-0.1814269721508026,0.09651670604944229,-0.1258382350206375
1660273467507697000,1.93369677734375,-0.1814269721508026,0.09651670604944229,-0.1258382350206375
1660273467509696800,1.93569677734375,-0.18020524084568024,0.08246681094169617,-0.12278391420841217
1660273467511697200,1.937697265625,-0.18081611394882202,0.07452555745840073,-0.11667526513338089
1660273467513697000,1.939697021484375,-0.1771509200334549,0.05375614017248154,-0.11484266817569733
1660273467515697000,1.94169677734375,-0.1771509200334549,0.03176499158143997,-0.1111774742603302
1660273467517706800,1.943706787109375,-0.1771509200334549,0.02015855349600315,-0.10690141469240189
1660273467519698000,1.945697998046875,-0.1716531366109848,-0.001832595793530345,-0.10445795953273773
1660273467521697300,1.947697265625,-0.1716531366109848,-0.028099801391363144,-0.09957103431224823
1660273467523697000,1.94969677734375,-0.17043140530586243,-0.04153883829712868,-0.10018189996480942
1660273467525696800,1.95169677734375,-0.1667662113904953,-0.06719517707824707,-0.09529497474431992
1660273467527696600,1.953696533203125,-0.1612684279680252,-0.09529497474431992,-0.09224065393209457
1660273467529696300,1.9556962890625,-0.15943582355976105,-0.11056660860776901,-0.0910189226269722
1660273467531696000,1.957696044921875,-0.15760323405265808,-0.1368338167667389,-0.08918632566928864
1660273467533696000,1.959696044921875,-0.15454891324043274,-0.1612684279680252,-0.08918632566928864
1660273467535696000,1.96169580078125,-0.15577064454555511,-0.17409659922122955,-0.0861319974064827
1660273467537693200,1.963693115234375,-0.1563815027475357,-0.20341812074184418,-0.08552113175392151
1660273467539693000,1.965693115234375,-0.1569923609495163,-0.21319197118282318,-0.08246681094169617
1660273467541693200,1.967693115234375,-0.15454891324043274,-0.22113321721553802,-0.08307767659425735
1660273467543693000,1.969693115234375,-0.15882496535778046,-0.23151792585849762,-0.0806342139840126
1660273467545692200,1.971692138671875,-0.15943582355976105,-0.24190263450145721,-0.0806342139840126
1660273467547691500,1.97369140625,-0.16310101747512817,-0.24556782841682434,-0.0806342139840126
1660273467549692000,1.97569189453125,-0.17104226350784302,-0.24984388053417206,-0.07819075137376785
1660273467551692000,1.977692138671875,-0.1771509200334549,-0.24984388053417206,-0.07819075137376785
1660273467553692000,1.97969189453125,-0.18325957655906677,-0.2535090744495392,-0.07757988572120667
1660273467555692000,1.981692138671875,-0.18936823308467865,-0.24984388053417206,-0.0757472887635231
1660273467557692000,1.98369189453125,-0.19608774781227112,-0.2480112910270691,-0.07513642311096191
1660273467559692000,1.985692138671875,-0.20341812074184418,-0.2431243658065796,-0.07452555745840073
1660273467561692000,1.98769189453125,-0.21563543379306793,-0.23640485107898712,-0.0708603709936142
1660273467563692000,1.989692138671875,-0.22663100063800812,-0.22663100063800812,-0.06719517707824707
1660273467565692000,1.99169189453125,-0.23090706765651703,-0.2223549485206604,-0.06414084881544113
1660273467567691500,1.99369140625,-0.24190263450145721,-0.2070833146572113,-0.05803219974040985
1660273467569691600,1.995691650390625,-0.251676470041275,-0.1875356286764145,-0.04886921867728233
1660273467571691800,1.99769189453125,-0.2583959996700287,-0.18081611394882202,-0.042760565876960754
1660273467573691600,1.999691650390625,-0.2669481039047241,-0.15332718193531036,-0.03176499158143997
1660273467575691500,2.00169140625,-0.2730567753314972,-0.12400564551353455,-0.016493361443281174
1660273467577690600,2.003690673828125,-0.2816088795661926,-0.0757472887635231,0.012217304669320583
1660273467579690200,2.005690185546875,-0.28649580478668213,-0.056810468435287476,0.02321287989616394
1660273467581690000,2.007690185546875,-0.28955012559890747,-0.039095375686883926,0.036651913076639175
1660273467583690200,2.009690185546875,-0.2919935882091522,-0.02015855349600315,0.04703662544488907
1660273467585690400,2.0116904296875,-0.294437050819397,0.012217304669320583,0.07147123664617538
1660273467587690500,2.0136904296875,-0.29565876722335815,0.04398229718208313,0.09651670604944229
1660273467589690400,2.0156904296875,-0.29626965522766113,0.054367005825042725,0.10995574295520782
1660273467591690000,2.01768994140625,-0.2981022298336029,0.07269296050071716,0.13500121235847473
1660273467593690000,2.019690185546875,-0.2968805134296417,0.08674286305904388,0.15760323405265808
1660273467595690200,2.021690185546875,-0.29504790902137756,0.08979719132184982,0.16859880089759827
1660273467597691100,2.023691162109375,-0.2932153046131134,0.09224065393209457,0.19058994948863983
1660273467599691000,2.02569091796875,-0.29016098380088806,0.08918632566928864,0.21074850857257843
1660273467601691100,2.027691162109375,-0.2871066629886627,0.08552113175392151,0.2174680233001709
1660273467603691000,2.02969091796875,-0.2779437005519867,0.07757988572120667,0.2370157092809677
1660273467605691400,2.03169140625,-0.27061331272125244,0.06169738993048668,0.24923302233219147
1660273467607692000,2.033692138671875,-0.26633724570274353,0.05497787147760391,0.25595253705978394
1660273467609691400,2.03569140625,-0.2541199326515198,0.036041051149368286,0.26511552929878235
1660273467611691300,2.037691162109375,-0.24190263450145721,0.012828170321881771,0.2718350291252136
1660273467613691400,2.03969140625,-0.2370157092809677,0.0012217304902151227,0.2736676335334778
1660273467615691300,2.041691162109375,-0.2272418737411499,-0.02687807008624077,0.2767219543457031
1660273467617690400,2.0436904296875,-0.1973094791173935,-0.1466076523065567,0.2431243658065796
1660273467619689500,2.045689453125,-0.1973094791173935,-0.1466076523065567,0.2431243658065796
1660273467621688600,2.0476884765625,-0.1973094791173935,-0.1466076523065567,0.2431243658065796
1660273467623687700,2.049687744140625,-0.1973094791173935,-0.1466076523065567,0.2431243658065796
1660273467625687800,2.051687744140625,-0.19608774781227112,-0.16798794269561768,0.23518311977386475
1660273467627688000,2.05368798828125,-0.1966986060142517,-0.2076941877603531,0.21135938167572021
1660273467629687600,2.0556875,-0.19608774781227112,-0.25473082065582275,0.182648703455925
1660273467631687400,2.0576875,-0.19792033731937408,-0.2767219543457031,0.16798794269561768
1660273467633687600,2.0596875,-0.2070833146572113,-0.323147714138031,0.12950342893600464
1660273467635687700,2.061687744140625,-0.21624629199504852,-0.36590829491615295,0.08674286305904388
1660273467637689000,2.063689208984375,-0.22418753802776337,-0.3885102868080139,0.0659734457731247
1660273467639690000,2.06568994140625,-0.24129177629947662,-0.423329621553421,0.016493361443281174
1660273467641689900,2.06768994140625,-0.2571742534637451,-0.4593706727027893,-0.0354301854968071
1660273467643690000,2.06968994140625,-0.2687807083129883,-0.475253164768219,-0.05925392732024193
1660273467645689600,2.071689697265625,-0.2926044464111328,-0.5009095072746277,-0.11545353382825851
1660273467647689700,2.073689697265625,-0.32009339332580566,-0.5149593949317932,-0.17470745742321014
1660273467649689600,2.075689697265625,-0.3335324227809906,-0.5186246037483215,-0.2021963894367218
1660273467651690000,2.07768994140625,-0.36224308609962463,-0.5216789245605469,-0.2620611786842346
1660273467653689900,2.07968994140625,-0.39645153284072876,-0.5088507533073425,-0.3182607889175415
1660273467655690000,2.08168994140625,-0.41172316670417786,-0.5027421116828918,-0.3481931984424591
1660273467657689000,2.083689208984375,-0.5351179838180542,-0.33047810196876526,-0.5412266254425049
1660273467659688200,2.085688232421875,-0.5351179838180542,-0.33047810196876526,-0.5412266254425049
1660273467661687300,2.087687255859375,-0.5516113042831421,-0.3017674386501312,-0.5619960427284241
1660273467663686400,2.089686279296875,-0.5681046843528748,-0.26511552929878235,-0.5778785347938538
1660273467665686500,2.0916865234375,-0.5681046843528748,-0.26511552929878235,-0.5778785347938538
1660273467667686000,2.093685791015625,-0.5681046843528748,-0.26511552929878235,-0.5778785347938538
1660273467669686300,2.095686279296875,-0.5925393104553223,-0.18936823308467865,-0.6017022728919983
1660273467671686400,2.097686279296875,-0.6200281977653503,-0.11056660860776901,-0.6224716901779175
1660273467673686300,2.099686279296875,-0.6298020482063293,-0.06536258012056351,-0.6285803318023682
1660273467675686400,2.101686279296875,-0.6505714654922485,0.022602014243602753,-0.637132465839386
1660273467677687600,2.1036875,-0.6646214127540588,0.11178833991289139,-0.637132465839386
1660273467679688400,2.1056884765625,-0.6725626587867737,0.15882496535778046,-0.6352998614311218
1660273467681689300,2.107689453125,-0.6786713004112244,0.24984388053417206,-0.6285803318023682
1660273467683690000,2.10968994140625,-0.6860016584396362,0.34086281061172485,-0.6108652353286743
1660273467685690000,2.111690185546875,-0.685390830039978,0.38667771220207214,-0.59803706407547
1660273467687690000,2.11368994140625,-0.6823364496231079,0.47219884395599365,-0.5736024379730225
1660273467689691100,2.115691162109375,-0.675616979598999,0.5491678714752197,-0.5363397002220154
1660273467691691000,2.11769091796875,-0.6695083379745483,0.588263213634491,-0.5186246037483215
1660273467693691000,2.11969091796875,-0.6572909951210022,0.6579018831253052,-0.4764748811721802
1660273467695691000,2.12169091796875,-0.6401867866516113,0.7165449261665344,-0.4300491213798523
1660273467697689600,2.123689697265625,-0.5564982295036316,0.8411614298820496,-0.21380282938480377
1660273467699688700,2.125688720703125,-0.5564982295036316,0.8411614298820496,-0.21380282938480377
1660273467701687800,2.127687744140625,-0.543059229850769,0.8448266386985779,-0.18509216606616974
1660273467703687000,2.12968701171875,-0.5271766781806946,0.8478809595108032,-0.1569923609495163
1660273467705686000,2.13168603515625,-0.5271766781806946,0.8478809595108032,-0.1569923609495163
1660273467707685000,2.13368505859375,-0.5271766781806946,0.8478809595108032,-0.1569923609495163
1660273467709685000,2.13568505859375,-0.513737678527832,0.8454375267028809,-0.12889257073402405
1660273467711685000,2.13768505859375,-0.48747047781944275,0.8350527882575989,-0.07208210229873657
1660273467713684700,2.139684814453125,-0.4550946056842804,0.816726803779602,-0.021991148591041565
1660273467715684900,2.141684814453125,-0.4398229718208313,0.8020660877227783,0.004886921960860491
1660273467717685800,2.143685791015625,-0.4080579876899719,0.7660250067710876,0.05619960278272629
1660273467719687000,2.14568701171875,-0.37201693654060364,0.7226535677909851,0.1007927656173706
1660273467721687600,2.1476875,-0.35552358627319336,0.6951646208763123,0.12400564551353455
1660273467723688400,2.1496884765625,-0.3194825351238251,0.6389650702476501,0.1661553531885147
1660273467725688600,2.1516884765625,-0.2828305959701538,0.5736024379730225,0.20097467303276062
1660273467727688700,2.153688720703125,-0.26572638750076294,0.5381723046302795,0.21930062770843506
1660273467729688800,2.155688720703125,-0.2278527319431305,0.46670106053352356,0.2480112910270691
1660273467731687700,2.157687744140625,-0.20891591906547546,0.4288274049758911,0.26022860407829285
1660273467733687800,2.159687744140625,-0.17409659922122955,0.35246923565864563,0.28649580478668213
1660273467735687700,2.161687744140625,-0.1362229436635971,0.2785545587539673,0.30482175946235657
1660273467737686500,2.1636865234375,-0.08735372871160507,0.16554448008537292,0.32681289315223694
1660273467739686700,2.165686767578125,-0.08735372871160507,0.16554448008537292,0.32681289315223694
1660273467741685800,2.167685791015625,-0.056810468435287476,0.09162978827953339,0.34025195240974426
1660273467743686000,2.169685791015625,-0.027488935738801956,0.024434609338641167,0.35063666105270386
1660273467745686000,2.17168603515625,-0.015271631069481373,-0.006719517521560192,0.35613444447517395
1660273467747686000,2.173685791015625,0.010995574295520782,-0.0659734457731247,0.36224308609962463
1660273467749685200,2.175685302734375,0.02015855349600315,-0.12034045159816742,0.3683517575263977
1660273467751685400,2.177685302734375,0.039095375686883926,-0.14416420459747314,0.3695734739303589
1660273467753685500,2.179685546875,0.0507018156349659,-0.19058994948863983,0.3744603991508484
1660273467755685400,2.181685302734375,0.05803219974040985,-0.20891591906547546,0.37751471996307373
1660273467757686300,2.183686279296875,0.06719517707824707,-0.2480112910270691,0.3793473243713379
1660273467759687200,2.185687255859375,0.07208210229873657,-0.2834414839744568,0.38240164518356323
1660273467761688000,2.18768798828125,0.07391469180583954,-0.2981022298336029,0.38179078698158264
1660273467763689000,2.18968896484375,0.07391469180583954,-0.3274237811565399,0.384845107793808
1660273467765689900,2.19168994140625,0.07024950534105301,-0.3530801236629486,0.384845107793808
1660273467767690800,2.193690673828125,0.06719517707824707,-0.3646865487098694,0.384845107793808
1660273467769690000,2.195690185546875,0.056810468435287476,-0.38728857040405273,0.3836233615875244
1660273467771690200,2.197690185546875,0.04886921867728233,-0.403781920671463,0.3830125033855438
1660273467773690400,2.1996904296875,0.042760565876960754,-0.41233405470848083,0.3842342495918274
1660273467775689500,2.201689453125,0.02382374368607998,-0.42760565876960754,0.3805690407752991
1660273467777688600,2.2036884765625,-0.010995574295520782,-0.4404338300228119,0.375071257352829
1660273467779687700,2.205687744140625,-0.010995574295520782,-0.4404338300228119,0.375071257352829
1660273467781687600,2.2076875,-0.02382374368607998,-0.4447098970413208,0.3738495409488678
1660273467783687700,2.209687744140625,-0.04886921867728233,-0.4440990388393402,0.3695734739303589
1660273467785688000,2.21168798828125,-0.05803219974040985,-0.4447098970413208,0.3683517575263977
1660273467787688000,2.21368798828125,-0.0806342139840126,-0.4398229718208313,0.36102136969566345
1660273467789688000,2.21568798828125,-0.10751228034496307,-0.4331034719944,0.35552358627319336
1660273467791689000,2.21768896484375,-0.12095131725072861,-0.42699480056762695,0.35246923565864563
1660273467793689000,2.219689208984375,-0.14294247329235077,-0.4190535545349121,0.34636059403419495
1660273467795689000,2.22168896484375,-0.16432274878025055,-0.40256020426750183,0.3390302062034607
1660273467797689900,2.22368994140625,-0.18325957655906677,-0.38728857040405273,0.33047810196876526
1660273467799690000,2.22568994140625,-0.19486601650714874,-0.3781255781650543,0.32498031854629517
1660273467801691000,2.22769091796875,-0.21135938167572021,-0.3585779070854187,0.3127630054950714
1660273467803690800,2.229690673828125,-0.2168571650981903,-0.34574973583221436,0.3084869384765625
1660273467805690600,2.231690673828125,-0.23029619455337524,-0.3225368559360504,0.2974913716316223
1660273467807690800,2.233690673828125,-0.24373523890972137,-0.29504790902137756,0.28588494658470154
1660273467809690600,2.235690673828125,-0.24984388053417206,-0.2828305959701538,0.2791654169559479
1660273467811690500,2.2376904296875,-0.2590068578720093,-0.2528982162475586,0.2687807083129883
1660273467813690600,2.239690673828125,-0.26572638750076294,-0.21991148591041565,0.25595253705978394
1660273467815690500,2.2416904296875,-0.2681698501110077,-0.20525072515010834,0.24862214922904968
1660273467817689600,2.243689697265625,-0.2828305959701538,-0.09346238523721695,0.21074850857257843
1660273467819689000,2.24568896484375,-0.2828305959701538,-0.09346238523721695,0.21074850857257843
1660273467821688000,2.24768798828125,-0.28466320037841797,-0.07391469180583954,0.2064724564552307
1660273467823687200,2.249687255859375,-0.28466320037841797,-0.07391469180583954,0.2064724564552307
1660273467825687300,2.251687255859375,-0.2871066629886627,-0.06169738993048668,0.19975294172763824
1660273467827687000,2.25368701171875,-0.2883284091949463,-0.04948008432984352,0.19608774781227112
1660273467829687300,2.255687255859375,-0.29016098380088806,-0.021380282938480377,0.18997909128665924
1660273467831687200,2.257687255859375,-0.2938261926174164,0.004886921960860491,0.182648703455925
1660273467833687300,2.259687255859375,-0.294437050819397,0.015271631069481373,0.17898350954055786
1660273467835688200,2.261688232421875,-0.2926044464111328,0.039095375686883926,0.16859880089759827
1660273467837689000,2.263689208984375,-0.29504790902137756,0.05864306539297104,0.16554448008537292
1660273467839690000,2.26568994140625,-0.29993483424186707,0.06780604273080826,0.1667662113904953
1660273467841689900,2.26768994140625,-0.2993239760398865,0.0861319974064827,0.1612684279680252
1660273467843690000,2.26968994140625,-0.3029891550540924,0.10262536257505417,0.15760323405265808
1660273467845689600,2.271689697265625,-0.3023782968521118,0.10873401165008545,0.15454891324043274
1660273467847689700,2.273689697265625,-0.3023782968521118,0.12217304855585098,0.15332718193531036
1660273467849689900,2.27568994140625,-0.30482175946235657,0.13072516024112701,0.15393804013729095
1660273467851689700,2.277689697265625,-0.30482175946235657,0.13561208546161652,0.1508837193250656
1660273467853689600,2.279689697265625,-0.31031954288482666,0.1466076523065567,0.14966198801994324
1660273467855689700,2.281689697265625,-0.31154128909111023,0.15454891324043274,0.1472185254096985
1660273467857688800,2.283688720703125,-0.32070425152778625,0.1716531366109848,0.13988813757896423
1660273467859688000,2.28568798828125,-0.32070425152778625,0.1716531366109848,0.13988813757896423
1660273467861687000,2.28768701171875,-0.32070425152778625,0.1716531366109848,0.13988813757896423
1660273467863686100,2.28968603515625,-0.32070425152778625,0.1716531366109848,0.13988813757896423
1660273467865686000,2.29168603515625,-0.3219259977340698,0.17409659922122955,0.13744467496871948
1660273467867686100,2.29368603515625,-0.3219259977340698,0.17776179313659668,0.13439035415649414
1660273467869686300,2.295686279296875,-0.3225368559360504,0.17898350954055786,0.1319468915462494
1660273467871686100,2.29768603515625,-0.3225368559360504,0.18387043476104736,0.13316862285137177
1660273467873686300,2.299686279296875,-0.3237585723400116,0.18814650177955627,0.1319468915462494
1660273467875686400,2.301686279296875,-0.3219259977340698,0.19058994948863983,0.13439035415649414
1660273467877687300,2.303687255859375,-0.3188716471195221,0.19486601650714874,0.13377949595451355
1660273467879688200,2.305688232421875,-0.3170390725135803,0.1973094791173935,0.13561208546161652
1660273467881689000,2.307689208984375,-0.313373863697052,0.19792033731937408,0.13866640627384186
1660273467883689700,2.309689697265625,-0.31031954288482666,0.19914206862449646,0.1411098688840866
1660273467885689300,2.311689453125,-0.3066543638706207,0.20097467303276062,0.1459967941045761
1660273467887689700,2.313689697265625,-0.3023782968521118,0.19853121042251587,0.1466076523065567
1660273467889689900,2.31568994140625,-0.2987131178379059,0.19792033731937408,0.152105450630188
1660273467891689200,2.317689208984375,-0.2932153046131134,0.1918116807937622,0.15454891324043274
1660273467893689300,2.319689453125,-0.29077184200286865,0.1875356286764145,0.15577064454555511
1660273467895689200,2.321689208984375,-0.2834414839744568,0.1814269721508026,0.1618792861700058
1660273467897688300,2.323688232421875,-0.25961771607398987,0.13439035415649414,0.17776179313659668
1660273467899687400,2.3256875,-0.2565633952617645,0.1258382350206375,0.17898350954055786
1660273467901686500,2.3276865234375,-0.2528982162475586,0.11850785464048386,0.17837265133857727
1660273467903685600,2.329685546875,-0.2528982162475586,0.11850785464048386,0.17837265133857727
1660273467905684700,2.331684814453125,-0.2528982162475586,0.11850785464048386,0.17837265133857727
1660273467907683600,2.33368359375,-0.2528982162475586,0.11850785464048386,0.17837265133857727
1660273467909683700,2.33568359375,-0.24434609711170197,0.09712757170200348,0.17837265133857727
1660273467911683600,2.33768359375,-0.23945917189121246,0.08674286305904388,0.17776179313659668
1660273467913683700,2.33968359375,-0.23457226157188416,0.06536258012056351,0.17531833052635193
1660273467915683800,2.341683837890625,-0.22663100063800812,0.03848451003432274,0.17104226350784302
1660273467917683700,2.34368359375,-0.22357667982578278,0.024434609338641167,0.16982053220272064
1660273467919683800,2.345683837890625,-0.21868975460529327,-0.004886921960860491,0.15882496535778046
1660273467921683700,2.34768359375,-0.21624629199504852,-0.03237585723400116,0.14905111491680145
1660273467923683800,2.349683837890625,-0.2125810980796814,-0.045204028487205505,0.14294247329235077
1660273467925683700,2.35168359375,-0.21380282938480377,-0.0757472887635231,0.12950342893600464
1660273467927682800,2.353682861328125,-0.2119702398777008,-0.10445795953273773,0.11239920556545258
1660273467929682700,2.3556826171875,-0.21502456068992615,-0.12217304855585098,0.10323622822761536
1660273467931682600,2.3576826171875,-0.21930062770843506,-0.14966198801994324,0.08307767659425735
1660273467933682400,2.359682373046875,-0.22052235901355743,-0.17837265133857727,0.05925392732024193
1660273467935682300,2.361682373046875,-0.22479841113090515,-0.19303341209888458,0.04703662544488907
1660273467937679600,2.3636796875,-0.23396138846874237,-0.23396138846874237,0.0024434609804302454
1660273467939679500,2.365679443359375,-0.23884831368923187,-0.24862214922904968,-0.010995574295520782
1660273467941679600,2.3676796875,-0.24129177629947662,-0.25961771607398987,-0.027488935738801956
1660273467943679500,2.369679443359375,-0.2474004179239273,-0.28099802136421204,-0.05864306539297104
1660273467945679600,2.3716796875,-0.25534167885780334,-0.30054569244384766,-0.0910189226269722
1660273467947679500,2.373679443359375,-0.2583959996700287,-0.3078760802745819,-0.10873401165008545
1660273467949679400,2.375679443359375,-0.2669481039047241,-0.32070425152778625,-0.1411098688840866
1660273467951679500,2.377679443359375,-0.26939156651496887,-0.3280346393585205,-0.1716531366109848
1660273467953679400,2.379679443359375,-0.2736676335334778,-0.32986724376678467,-0.19058994948863983
1660273467955679500,2.381679443359375,-0.2773328125476837,-0.33475416898727417,-0.22052235901355743
1660273467957679400,2.383679443359375,-0.2828305959701538,-0.33108896017074585,-0.251676470041275
1660273467959679200,2.38567919921875,-0.2834414839744568,-0.33108896017074585,-0.2632829248905182
1660273467961679000,2.38767919921875,-0.2877175211906433,-0.3243694305419922,-0.2926044464111328
1660273467963679200,2.38967919921875,-0.29016098380088806,-0.31459560990333557,-0.3182607889175415
1660273467965679000,2.39167919921875,-0.2926044464111328,-0.3090978264808655,-0.33047810196876526
1660273467967679000,2.393678955078125,-0.2932153046131134,-0.294437050819397,-0.35246923565864563
1660273467969679000,2.39567919921875,-0.2993239760398865,-0.2822197377681732,-0.3744603991508484
1660273467971678700,2.3976787109375,-0.3029891550540924,-0.2730567753314972,-0.3854559659957886
1660273467973678800,2.399678955078125,-0.3078760802745819,-0.2535090744495392,-0.40072759985923767
1660273467975678700,2.4016787109375,-0.3127630054950714,-0.23029619455337524,-0.41661009192466736
1660273467977677800,2.403677734375,-0.3219259977340698,-0.1918116807937622,-0.4337143301963806
1660273467979677000,2.405677001953125,-0.3219259977340698,-0.17898350954055786,-0.4398229718208313
1660273467981676800,2.4076767578125,-0.32681289315223694,-0.1661553531885147,-0.44287729263305664
1660273467983677000,2.409677001953125,-0.33108896017074585,-0.1514945775270462,-0.44776421785354614
1660273467985676800,2.4116767578125,-0.33292156457901,-0.12095131725072861,-0.4508185386657715
1660273467987677000,2.413677001953125,-0.33597588539123535,-0.09651670604944229,-0.4495968222618103
1660273467989677000,2.415677001953125,-0.33719760179519653,-0.08246681094169617,-0.4489859640598297
1660273467991677000,2.417677001953125,-0.3390302062034607,-0.05619960278272629,-0.44287729263305664
1660273467993677000,2.419677001953125,-0.33536502718925476,-0.03237585723400116,-0.43615779280662537
1660273467995677200,2.42167724609375,-0.33475416898727417,-0.02015855349600315,-0.43127086758613586
1660273467997678000,2.423677978515625,-0.33292156457901,0,-0.4178318381309509
1660273467999678000,2.425677978515625,-0.32559117674827576,0.024434609338641167,-0.40194934606552124
1660273468001678000,2.427677978515625,-0.323147714138031,0.033597588539123535,-0.3927863538265228
1660273468003678000,2.429677978515625,-0.3188716471195221,0.054367005825042725,-0.3738495409488678
1660273468005678000,2.431677978515625,-0.31031954288482666,0.07635815441608429,-0.3500257730484009
1660273468007678500,2.433678466796875,-0.3072652220726013,0.08674286305904388,-0.3378084897994995
1660273468009678600,2.4356787109375,-0.2968805134296417,0.10812314599752426,-0.30970868468284607
1660273468011678200,2.43767822265625,-0.2889392673969269,0.1319468915462494,-0.2791654169559479
1660273468013678000,2.439677978515625,-0.2840523421764374,0.14294247329235077,-0.26083946228027344
1660273468015678000,2.441677978515625,-0.27550023794174194,0.16554448008537292,-0.22907446324825287
1660273468017677000,2.443677001953125,-0.2431243658065796,0.24434609711170197,-0.1007927656173706
1660273468019676400,2.445676513671875,-0.2431243658065796,0.24434609711170197,-0.1007927656173706
1660273468021675500,2.447675537109375,-0.2431243658065796,0.24434609711170197,-0.1007927656173706
1660273468023674600,2.449674560546875,-0.2431243658065796,0.24434609711170197,-0.1007927656173706
1660273468025674800,2.4516748046875,-0.23884831368923187,0.25473082065582275,-0.08368854224681854
1660273468027674600,2.453674560546875,-0.2278527319431305,0.2767219543457031,-0.04337143152952194
1660273468029674800,2.4556748046875,-0.21868975460529327,0.29626965522766113,-0.006108652334660292
1660273468031675000,2.4576748046875,-0.21074850857257843,0.3029891550540924,0.014049900695681572
1660273468033675000,2.459675048828125,-0.19853121042251587,0.323147714138031,0.05314527451992035
1660273468035675000,2.4616748046875,-0.1869247704744339,0.34086281061172485,0.0910189226269722
1660273468037675800,2.46367578125,-0.1820378452539444,0.3481931984424591,0.11178833991289139
1660273468039676700,2.4656767578125,-0.1667662113904953,0.36163222789764404,0.1508837193250656
1660273468041676800,2.4676767578125,-0.14782938361167908,0.37262779474258423,0.18936823308467865
1660273468043676700,2.4696767578125,-0.1411098688840866,0.37629300355911255,0.20891591906547546
1660273468045676800,2.4716767578125,-0.12522737681865692,0.3799581825733185,0.24862214922904968
1660273468047676700,2.4736767578125,-0.10445795953273773,0.384845107793808,0.28588494658470154
1660273468049677000,2.475677001953125,-0.09896016865968704,0.3836233615875244,0.30543261766433716
1660273468051677200,2.47767724609375,-0.08185594528913498,0.38117989897727966,0.3445279896259308
1660273468053677000,2.479677001953125,-0.06475171446800232,0.3793473243713379,0.37751471996307373
1660273468055677000,2.481677001953125,-0.0555887371301651,0.375071257352829,0.3952298164367676
1660273468057676000,2.483676025390625,0.018325956538319588,0.33047810196876526,0.5271766781806946
1660273468059675100,2.485675048828125,0.018325956538319588,0.33047810196876526,0.5271766781806946
1660273468061674200,2.48767431640625,0.018325956538319588,0.33047810196876526,0.5271766781806946
1660273468063673300,2.48967333984375,0.018325956538319588,0.33047810196876526,0.5271766781806946
1660273468065672400,2.49167236328125,0.030543262138962746,0.3243694305419922,0.5387831330299377
1660273468067672000,2.493672119140625,0.0403171069920063,0.31581732630729675,0.5522221922874451
1660273468069671200,2.495671142578125,0.06352998316287994,0.2968805134296417,0.5772676467895508
1660273468071671600,2.497671630859375,0.08674286305904388,0.2773328125476837,0.6004805564880371
1660273468073671700,2.499671630859375,0.09712757170200348,0.2675589919090271,0.6090326309204102
1660273468075671600,2.501671630859375,0.1160643994808197,0.2474004179239273,0.6304129362106323
1660273468077672400,2.50367236328125,0.1368338167667389,0.22479841113090515,0.646906316280365
1660273468079673300,2.50567333984375,0.1514945775270462,0.21441370248794556,0.6505714654922485
1660273468081674200,2.50767431640625,0.16920967400074005,0.19303341209888458,0.6609562039375305
1660273468083675100,2.509675048828125,0.18997909128665924,0.16920967400074005,0.6682865619659424
1660273468085675000,2.511675048828125,0.19792033731937408,0.15760323405265808,0.6737843751907349
1660273468087675600,2.513675537109375,0.21624629199504852,0.1319468915462494,0.6780604124069214
1660273468089675500,2.515675537109375,0.23151792585849762,0.10690141469240189,0.6811147332191467
1660273468091675600,2.517675537109375,0.23884831368923187,0.09407325088977814,0.6817256212234497
1660273468093675500,2.519675537109375,0.25106561183929443,0.07208210229873657,0.6817256212234497
1660273468095675400,2.52167529296875,0.26450464129447937,0.04764748737215996,0.6805039048194885
1660273468097674800,2.5236748046875,0.28588494658470154,-0.01710422709584236,0.6615670323371887
1660273468099673900,2.525673828125,0.28588494658470154,-0.016493361443281174,0.6621779203414917
1660273468101673000,2.5276728515625,0.2877175211906433,-0.02076941914856434,0.656069278717041
1660273468103672000,2.529672119140625,0.2877175211906433,-0.02076941914856434,0.656069278717041
1660273468105672200,2.531672119140625,0.2877175211906433,-0.02076941914856434,0.656069278717041
1660273468107671300,2.53367138671875,0.2877175211906433,-0.02076941914856434,0.656069278717041
1660273468109671000,2.5356708984375,0.2889392673969269,-0.022602014243602753,0.6536257863044739
1660273468111671000,2.537671142578125,0.29077184200286865,-0.021991148591041565,0.646295428276062
1660273468113671000,2.5396708984375,0.2919935882091522,-0.015271631069481373,0.6395758986473083
1660273468115671000,2.541671142578125,0.2926044464111328,-0.009773843921720982,0.6377432942390442
1660273468117671000,2.5436708984375,0.2932153046131134,0.00427605677396059,0.6322455406188965
1660273468119671000,2.545671142578125,0.2968805134296417,0.02382374368607998,0.626747727394104
1660273468121671000,2.5476708984375,0.2987131178379059,0.036041051149368286,0.6224716901779175
1660273468123671000,2.549671142578125,0.3023782968521118,0.06108652427792549,0.6151412725448608
1660273468125671000,2.5516708984375,0.30482175946235657,0.0910189226269722,0.6090326309204102
1660273468127671000,2.553671142578125,0.30970868468284607,0.10690141469240189,0.6059783101081848
1660273468129671000,2.5556708984375,0.3176499307155609,0.13561208546161652,0.5974262356758118
1660273468131671000,2.557671142578125,0.3274237811565399,0.1667662113904953,0.5900958180427551
1660273468133671000,2.5596708984375,0.3341432809829712,0.17959438264369965,0.5858197808265686
1660273468135671000,2.561671142578125,0.34574973583221436,0.2076941877603531,0.5742133259773254
1660273468137668400,2.56366845703125,0.3683517575263977,0.24434609711170197,0.5571091175079346
1660273468139668500,2.56566845703125,0.3683517575263977,0.24434609711170197,0.5571091175079346
1660273468141668400,2.56766845703125,0.3836233615875244,0.2632829248905182,0.5448917746543884
1660273468143668500,2.56966845703125,0.3988949954509735,0.2816088795661926,0.5302310585975647
1660273468145668400,2.57166845703125,0.4056145250797272,0.28588494658470154,0.5222898125648499
1660273468147668500,2.57366845703125,0.4282165467739105,0.29565876722335815,0.5070181488990784
1660273468149668600,2.575668701171875,0.44287729263305664,0.29565876722335815,0.4862487316131592
1660273468151668700,2.577668701171875,0.4508185386657715,0.2919935882091522,0.47280970215797424
1660273468153668600,2.579668701171875,0.46731191873550415,0.2816088795661926,0.44715335965156555
1660273468155668700,2.581668701171875,0.485027015209198,0.2620611786842346,0.41233405470848083
1660273468157668900,2.5836689453125,0.4905247986316681,0.2480112910270691,0.3927863538265228
1660273468159669000,2.5856689453125,0.504574716091156,0.21013765037059784,0.3500257730484009
1660273468161668900,2.5876689453125,0.5167919993400574,0.1667662113904953,0.30054569244384766
1660273468163669000,2.5896689453125,0.5186246037483215,0.1417207419872284,0.2736676335334778
1660273468165668900,2.5916689453125,0.5283984541893005,0.08368854224681854,0.2119702398777008
1660273468167668500,2.59366845703125,0.5320636034011841,0.01710422709584236,0.1417207419872284
1660273468169668400,2.59566845703125,0.5308418869972229,-0.016493361443281174,0.10751228034496307
1660273468171668500,2.59766845703125,0.5265658497810364,-0.08918632566928864,0.030543262138962746
1660273468173668600,2.599668701171875,0.5192354321479797,-0.16554448008537292,-0.0555887371301651
1660273468175668700,2.601668701171875,0.513126790523529,-0.20525072515010834,-0.09712757170200348
1660273468177667800,2.603667724609375,0.47769662737846375,-0.3384193480014801,-0.27122417092323303
1660273468179667000,2.6056669921875,0.47769662737846375,-0.3384193480014801,-0.27122417092323303
1660273468181666800,2.607666748046875,0.46547931432724,-0.36590829491615295,-0.31093040108680725
1660273468183666400,2.60966650390625,0.4392121136188507,-0.413555771112442,-0.394008070230484
1660273468185666600,2.61166650390625,0.4098905920982361,-0.44837507605552673,-0.4709770977497101
1660273468187666700,2.613666748046875,0.394008070230484,-0.45875978469848633,-0.5076290369033813
1660273468189666600,2.61566650390625,0.36102136969566345,-0.475253164768219,-0.5754350423812866
1660273468191666700,2.617666748046875,0.33047810196876526,-0.4789183437824249,-0.637132465839386
1660273468193666600,2.61966650390625,0.3121521472930908,-0.47708576917648315,-0.665232241153717
1660273468195666700,2.621666748046875,0.2773328125476837,-0.46731191873550415,-0.7147123217582703
1660273468197667600,2.62366748046875,0.24617868661880493,-0.4508185386657715,-0.7562511563301086
1660273468199667500,2.62566748046875,0.2272418737411499,-0.43676865100860596,-0.7727445363998413
