time,seconds_elapsed,z,y,x
1660273660625363700,0.04136376953125,0.09781479835510254,-0.4643339514732361,-0.031612277030944824
1660273660635385600,0.051385498046875,0.09781479835510254,-0.4643339514732361,-0.031612277030944824
1660273660637385700,0.0533857421875,0.09781479835510254,-0.4643339514732361,-0.031612277030944824
1660273660639385600,0.055385498046875,0.09781479835510254,-0.4643339514732361,-0.031612277030944824
1660273660641385700,0.0573857421875,0.09781479835510254,-0.4643339514732361,-0.031612277030944824
1660273660643385600,0.059385498046875,-0.11110111325979233,-0.3268892765045166,0.11071932315826416
1660273660645385700,0.0613857421875,-0.12209668755531311,-0.3336087763309479,0.1235474944114685
1660273660647385600,0.063385498046875,-0.13859005272388458,-0.3427717685699463,0.13820825517177582
1660273660649385700,0.0653857421875,-0.1428661048412323,-0.34949126839637756,0.14309518039226532
1660273660651385600,0.067385498046875,-0.15630514919757843,-0.35559993982315063,0.15653422474861145
1660273660653385700,0.0693857421875,-0.16607898473739624,-0.36048686504364014,0.16814066469669342
1660273660655385900,0.0713857421875,-0.17463110387325287,-0.3623194396495819,0.17302757501602173
1660273660657383400,0.073383544921875,-0.1935679316520691,-0.3635411858558655,0.19135354459285736
1660273660659383600,0.075383544921875,-0.1978439837694168,-0.3635411858558655,0.19318613409996033
1660273660661383700,0.0773837890625,-0.2039526402950287,-0.3629303276538849,0.1999056488275528
1660273660663383800,0.0793837890625,-0.21616993844509125,-0.358654260635376,0.2054034322500229
1660273660665384000,0.081384033203125,-0.2241111844778061,-0.3537673354148865,0.20845776796340942
1660273660667383800,0.0833837890625,-0.2283872365951538,-0.3513238728046417,0.20845776796340942
1660273660669384000,0.085384033203125,-0.2393828183412552,-0.34521523118019104,0.20723603665828705
1660273660671383800,0.0873837890625,-0.24610233306884766,-0.34460434317588806,0.2041817009449005
1660273660673384000,0.089384033203125,-0.25098925828933716,-0.34949126839637756,0.20357084274291992
1660273660675383800,0.0913837890625,-0.25587618350982666,-0.35559993982315063,0.1992947906255722
1660273660677384000,0.093384033203125,-0.258930504322052,-0.367817223072052,0.19135354459285736
1660273660679383800,0.0953837890625,-0.2595413625240326,-0.377591073513031,0.18585574626922607
1660273660681384000,0.097384033203125,-0.25648704171180725,-0.3977496325969696,0.17302757501602173
1660273660683383800,0.0993837890625,-0.2540435791015625,-0.42096251249313354,0.16019940376281738
1660273660685384000,0.101384033203125,-0.25098925828933716,-0.4331798255443573,0.1498146951198578
1660273660687384000,0.103384033203125,-0.24671320617198944,-0.458836168050766,0.12965615093708038
1660273660689384000,0.105384033203125,-0.2393828183412552,-0.4881576895713806,0.10949759185314178
1660273660691384000,0.107384033203125,-0.23693935573101044,-0.5040401816368103,0.09605856239795685
1660273660693384200,0.10938427734375,-0.2289981096982956,-0.5339725613594055,0.07284568250179291
1660273660695384000,0.111384033203125,-0.22044599056243896,-0.5632941126823425,0.04657847434282303
1660273660697383200,0.113383056640625,-0.20700696110725403,-0.6121633052825928,-0.001679879380390048
1660273660699382500,0.115382568359375,-0.20700696110725403,-0.6121633052825928,-0.001679879380390048
1660273660701382400,0.11738232421875,-0.2033417671918869,-0.6237697601318359,-0.010842857882380486
1660273660703382500,0.119382568359375,-0.19967657327651978,-0.6304892897605896,-0.02428189292550087
1660273660705382400,0.12138232421875,-0.19051359593868256,-0.6488152742385864,-0.04505131021142006
1660273660707382500,0.123382568359375,-0.17890715599060059,-0.6604216694831848,-0.06459899991750717
1660273660709382400,0.12538232421875,-0.17524196207523346,-0.662865161895752,-0.07437284290790558
1660273660711382500,0.127382568359375,-0.16607898473739624,-0.6640868782997131,-0.09147707372903824
1660273660713382400,0.12938232421875,-0.15386168658733368,-0.6598108410835266,-0.10491610318422318
1660273660715382300,0.13138232421875,-0.1483639031648636,-0.6549239158630371,-0.11041389405727386
1660273660717383000,0.1333828125,-0.13553573191165924,-0.6396522521972656,-0.1189660057425499
1660273660719382800,0.1353828125,-0.12087496370077133,-0.6164394021034241,-0.12202033400535583
1660273660721383000,0.1373828125,-0.11476630717515945,-0.6023895144462585,-0.1238529309630394
1660273660723382800,0.1393828125,-0.10193813592195511,-0.568791925907135,-0.12018773704767227
1660273660725382700,0.141382568359375,-0.08605564385652542,-0.5327508449554443,-0.11224649101495743
1660273660727382800,0.1433828125,-0.08116871863603592,-0.5119814276695251,-0.10674870014190674
1660273660729382700,0.145382568359375,-0.06528622657060623,-0.47044259309768677,-0.08781187981367111
1660273660731382800,0.1473828125,-0.050014592707157135,-0.4240168333053589,-0.0633772686123848
1660273660733382700,0.149382568359375,-0.04024074971675873,-0.4020256996154785,-0.048105638474226
1660273660735382800,0.1513828125,-0.02863430790603161,-0.35010215640068054,-0.016340645030140877
1660273660737382000,0.1533818359375,0.029397889971733093,-0.1607339233160019,0.13209961354732513
1660273660739381200,0.15538134765625,0.029397889971733093,-0.1607339233160019,0.13209961354732513
1660273660741380400,0.15738037109375,0.029397889971733093,-0.1607339233160019,0.13209961354732513
1660273660743360500,0.159360595703125,0.029397889971733093,-0.1607339233160019,0.13209961354732513
1660273660745386500,0.161386474609375,0.037339139729738235,-0.13629931211471558,0.16019940376281738
1660273660747385600,0.163385498046875,0.055665094405412674,-0.08681922405958176,0.21212296187877655
1660273660749385200,0.16538525390625,0.07032585889101028,-0.04161519557237625,0.27320948243141174
1660273660751384800,0.167384765625,0.07826711237430573,-0.022067507728934288,0.30314189195632935
1660273660753384400,0.169384521484375,0.09353873878717422,0.015195272862911224,0.3660610020160675
1660273660755384300,0.17138427734375,0.10819950699806213,0.044516805559396744,0.42959097027778625
1660273660757384200,0.17338427734375,0.11675161868333817,0.05367978289723396,0.4631885588169098
1660273660759384000,0.175384033203125,0.1295797973871231,0.07017314434051514,0.5340489149093628
1660273660761384000,0.177384033203125,0.13874277472496033,0.07322747260332108,0.603076696395874
1660273660763383800,0.1793837890625,0.14301882684230804,0.06895141303539276,0.6378960609436035
1660273660765383700,0.1813837890625,0.14790575206279755,0.05367978289723396,0.70692378282547
1660273660767383600,0.183383544921875,0.14790575206279755,0.023136520758271217,0.7698429226875305
1660273660769383400,0.185383544921875,0.14668402075767517,0.0029779679607599974,0.8052731156349182
1660273660771383600,0.187383544921875,0.1460731476545334,-0.05077817291021347,0.8645270466804504
1660273660773383400,0.189383544921875,0.13935363292694092,-0.12469286471605301,0.9207266569137573
1660273660775383300,0.19138330078125,0.13446670770645142,-0.1656208336353302,0.9451612234115601
1660273660777381600,0.193381591796875,0.08132143318653107,-0.5889504551887512,1.0728321075439453
1660273660779380000,0.1953798828125,0.08132143318653107,-0.5889504551887512,1.0728321075439453
1660273660781378600,0.197378662109375,0.07215845584869385,-0.6634759902954102,1.080162525177002
1660273660783377200,0.199377197265625,0.07215845584869385,-0.6634759902954102,1.080162525177002
1660273660785377300,0.201377197265625,0.061162881553173065,-0.7422776222229004,1.0862711668014526
1660273660787376600,0.203376708984375,0.049556441605091095,-0.824744462966919,1.0899362564086914
1660273660789376800,0.205376708984375,0.02695442922413349,-0.995786726474762,1.0893254280090332
1660273660791376600,0.207376708984375,0.00557414535433054,-1.176602840423584,1.07771897315979
1660273660793376800,0.209376708984375,-0.008475755341351032,-1.270065188407898,1.069166898727417
1660273660795376600,0.211376708984375,-0.03352123126387596,-1.452713966369629,1.0441213846206665
1660273660797376500,0.21337646484375,-0.059177570044994354,-1.6298648118972778,1.0068585872650146
1660273660799376600,0.215376708984375,-0.07078400999307632,-1.7147750854492188,0.9873109459877014
1660273660801376500,0.21737646484375,-0.09827294945716858,-1.8778761625289917,0.936609148979187
1660273660803376400,0.21937646484375,-0.12148582190275192,-2.022040367126465,0.8828529715538025
1660273660805376500,0.22137646484375,-0.137979194521904,-2.0855703353881836,0.8498662710189819
1660273660807376400,0.22337646484375,-0.15997034311294556,-2.1967477798461914,0.784503698348999
1660273660809376500,0.22537646484375,-0.18196149170398712,-2.285323143005371,0.7099781036376953
1660273660811376600,0.227376708984375,-0.19234620034694672,-2.3176991939544678,0.671493649482727
1660273660813376500,0.22937646484375,-0.20945042371749878,-2.363513946533203,0.5902485251426697
1660273660815376600,0.231376708984375,-0.2192242592573166,-2.3861160278320312,0.5083925724029541
1660273660817375700,0.233375732421875,-0.2528218626976013,-2.2083542346954346,0.19807305932044983
1660273660819374800,0.235374755859375,-0.2540435791015625,-2.153376340866089,0.16569720208644867
1660273660821374200,0.237374267578125,-0.26015225052833557,-2.0941224098205566,0.14065171778202057
1660273660823373300,0.239373291015625,-0.26015225052833557,-2.0941224098205566,0.14065171778202057
1660273660825372400,0.241372314453125,-0.26015225052833557,-2.0941224098205566,0.14065171778202057
1660273660827371500,0.24337158203125,-0.26015225052833557,-2.0941224098205566,0.14065171778202057
1660273660829372000,0.245371826171875,-0.2632065713405609,-2.0244836807250977,0.11743884533643723
1660273660831371800,0.247371826171875,-0.27298039197921753,-1.8778761625289917,0.07712173461914062
1660273660833372000,0.249371826171875,-0.2790890634059906,-1.7104990482330322,0.05146539583802223
1660273660835372000,0.2513720703125,-0.2839759886264801,-1.621923565864563,0.04046982154250145
1660273660837368800,0.253368896484375,-0.2882520258426666,-1.443550944328308,0.03680463135242462
1660273660839369000,0.255368896484375,-0.29741501808166504,-1.2609021663665771,0.039248090237379074
1660273660841368800,0.257368896484375,-0.29802587628364563,-1.1735484600067139,0.04108068719506264
1660273660843369000,0.259368896484375,-0.3035236597061157,-1.0000628232955933,0.055741455405950546
1660273660845368800,0.261368896484375,-0.31268665194511414,-0.8418486714363098,0.07773260027170181
1660273660847368400,0.263368408203125,-0.3187952935695648,-0.7703774571418762,0.09117163717746735
1660273660849368600,0.26536865234375,-0.32734742760658264,-0.6304892897605896,0.11743884533643723
1660273660851368400,0.267368408203125,-0.33651039004325867,-0.500374972820282,0.14614951610565186
1660273660853368600,0.26936865234375,-0.34139731526374817,-0.44600799679756165,0.1595885455608368
1660273660855368400,0.271368408203125,-0.3548363447189331,-0.3421608805656433,0.1889100819826126
1660273660857366000,0.273365966796875,-0.368886262178421,-0.25358542799949646,0.21212296187877655
1660273660859366000,0.275365966796875,-0.3756057620048523,-0.21876612305641174,0.2298380434513092
1660273660861365800,0.27736572265625,-0.38721221685409546,-0.1558469980955124,0.2506074607372284
1660273660863366000,0.279365966796875,-0.3969860374927521,-0.1100321039557457,0.26771169900894165
1660273660865366000,0.281365966796875,-0.4000403881072998,-0.09048441797494888,0.2768746614456177
1660273660867366100,0.2833662109375,-0.4061490297317505,-0.06299547851085663,0.2915354371070862
1660273660869366000,0.285365966796875,-0.40920335054397583,-0.05016730725765228,0.299476683139801
1660273660871366100,0.2873662109375,-0.4067598879337311,-0.04466952010989189,0.3013092875480652
1660273660873366300,0.2893662109375,-0.40248385071754456,-0.04466952010989189,0.3049744665622711
1660273660875366100,0.2913662109375,-0.3951534628868103,-0.04894557595252991,0.3043636083602905
1660273660877366300,0.2933662109375,-0.38904479146003723,-0.055054228752851486,0.3013092875480652
1660273660879366100,0.2953662109375,-0.3756057620048523,-0.07582364976406097,0.29825496673583984
1660273660881366300,0.2973662109375,-0.3542254865169525,-0.10636691004037857,0.290313720703125
1660273660883366100,0.2993662109375,-0.34200817346572876,-0.1253037303686142,0.2848159074783325
1660273660885366300,0.3013662109375,-0.3187952935695648,-0.17295122146606445,0.2713768780231476
1660273660887366100,0.3033662109375,-0.29252809286117554,-0.2315942794084549,0.25671613216400146
1660273660889366300,0.3053662109375,-0.27725645899772644,-0.2664135992527008,0.24877487123012543
1660273660891366400,0.307366455078125,-0.24304801225662231,-0.3415500223636627,0.230448916554451
1660273660893366300,0.3093662109375,-0.21128301322460175,-0.42523857951164246,0.2096794992685318
1660273660895366400,0.311366455078125,-0.1935679316520691,-0.47044259309768677,0.19562959671020508
1660273660897365500,0.313365478515625,-0.1269836127758026,-0.6543130278587341,0.15653422474861145
1660273660899364900,0.31536474609375,-0.1269836127758026,-0.6543130278587341,0.15653422474861145
1660273660901365200,0.317365234375,-0.11354457587003708,-0.7037931084632874,0.14676037430763245
1660273660903365000,0.319365234375,-0.07994698733091354,-0.7942011952400208,0.12721268832683563
1660273660905364200,0.3213642578125,-0.050014592707157135,-0.8833875060081482,0.1082758679986
1660273660907364400,0.3233642578125,-0.03413209691643715,-0.9279806613922119,0.1033889427781105
1660273660909364200,0.3253642578125,-0.004810563754290342,-1.0153343677520752,0.08933904021978378
1660273660911364400,0.3273642578125,0.022678371518850327,-1.099633812904358,0.07773260027170181
1660273660913364200,0.3293642578125,0.0342848114669323,-1.1393400430679321,0.07223481684923172
1660273660915364400,0.3313642578125,0.06238461285829544,-1.2181416749954224,0.062460970133543015
1660273660917365000,0.333364990234375,0.08865182101726532,-1.292667269706726,0.053297992795705795
1660273660919365000,0.335365234375,0.10086912661790848,-1.3213778734207153,0.04963280260562897
1660273660921365200,0.337365234375,0.12286027520895004,-1.3794100284576416,0.044135015457868576
1660273660923365000,0.339365234375,0.14301882684230804,-1.4270576238632202,0.03497203439474106
1660273660925365000,0.341364990234375,0.15340353548526764,-1.4453835487365723,0.03191770985722542
1660273660927365000,0.343365234375,0.17295122146606445,-1.4777593612670898,0.023365596309304237
1660273660929365000,0.345364990234375,0.19188804924488068,-1.4966962337493896,0.017867809161543846
1660273660931365000,0.347365234375,0.19982929527759552,-1.5021940469741821,0.012980886735022068
1660273660933365000,0.349364990234375,0.21754439175128937,-1.4997504949569702,0.004428773187100887
1660273660935365000,0.351365234375,0.23403774201869965,-1.4899766445159912,-0.005955935921519995
1660273660937364200,0.3533642578125,0.2853504419326782,-1.405677318572998,-0.04688390716910362
1660273660939363300,0.35536328125,0.2926807999610901,-1.38307523727417,-0.054825156927108765
1660273660941362400,0.357362548828125,0.2926807999610901,-1.38307523727417,-0.054825156927108765
1660273660943361800,0.35936181640625,0.2926807999610901,-1.38307523727417,-0.054825156927108765
1660273660945361700,0.361361572265625,0.2963460087776184,-1.3641384840011597,-0.060322944074869156
1660273660947361800,0.36336181640625,0.3030655086040497,-1.3207670450210571,-0.07864890247583389
1660273660949361700,0.365361572265625,0.30917418003082275,-1.2975541353225708,-0.08597928285598755
1660273660951361800,0.36736181640625,0.30978503823280334,-1.25051748752594,-0.10125091671943665
1660273660953361700,0.369361572265625,0.3116176426410675,-1.1992048025131226,-0.11652254313230515
1660273660955361500,0.371361572265625,0.30978503823280334,-1.1723268032073975,-0.12507465481758118
1660273660957362400,0.373362548828125,0.30550897121429443,-1.119181513786316,-0.1385136991739273
1660273660959363300,0.37536328125,0.30367639660835266,-1.0660362243652344,-0.15317445993423462
1660273660961363000,0.377363037109375,0.29390254616737366,-1.0409907102584839,-0.1586722433567047
1660273660963362800,0.37936279296875,0.2810743749141693,-0.9908998012542725,-0.17027868330478668
1660273660965363700,0.38136376953125,0.2670244574546814,-0.9395871162414551,-0.1837177276611328
1660273660967363600,0.383363525390625,0.2566397488117218,-0.9133198857307434,-0.1892155110836029
1660273660969363700,0.38536376953125,0.23770293593406677,-0.8650615215301514,-0.2002110779285431
1660273660971363800,0.38736376953125,0.2260964959859848,-0.843070387840271,-0.20570887625217438
1660273660973363700,0.38936376953125,0.20410534739494324,-0.8027532696723938,-0.22220222651958466
1660273660975363600,0.391363525390625,0.1753946840763092,-0.7667122483253479,-0.23686300218105316
1660273660977363000,0.393363037109375,0.07093672454357147,-0.671417236328125,-0.32360586524009705
1660273660979361800,0.39536181640625,0.07093672454357147,-0.671417236328125,-0.32360586524009705
1660273660981361200,0.397361083984375,0.07093672454357147,-0.671417236328125,-0.32360586524009705
1660273660983360300,0.3993603515625,0.07093672454357147,-0.671417236328125,-0.32360586524009705
1660273660985360100,0.401360107421875,0.055054228752851486,-0.6598108410835266,-0.3407101035118103
1660273660987360300,0.4033603515625,0.0214566420763731,-0.6347653269767761,-0.3700316250324249
1660273660989360000,0.405360107421875,0.00862847175449133,-0.6219371557235718,-0.38408151268959045
1660273660991360300,0.4073603515625,-0.017638733610510826,-0.5944482684135437,-0.41401392221450806
1660273660993360100,0.409360107421875,-0.03901901841163635,-0.568791925907135,-0.4378376603126526
1660273660995359200,0.411359130859375,-0.047571130096912384,-0.5559637546539307,-0.45066583156585693
1660273660997360000,0.413360107421875,-0.06284276396036148,-0.5278639197349548,-0.47448956966400146
1660273660999361000,0.415361083984375,-0.07444920390844345,-0.5022075772285461,-0.4928155243396759
1660273661001361700,0.417361572265625,-0.07750352472066879,-0.49060115218162537,-0.5032002329826355
1660273661003362600,0.419362548828125,-0.08361218124628067,-0.4631122052669525,-0.5154175758361816
1660273661005362400,0.421362548828125,-0.0817795842885971,-0.4331798255443573,-0.5313000679016113
1660273661007362600,0.423362548828125,-0.08361218124628067,-0.42035165429115295,-0.5361869931221008
1660273661009362400,0.425362548828125,-0.07750352472066879,-0.39408445358276367,-0.5453499555587769
1660273661011362600,0.427362548828125,-0.07506006956100464,-0.3763693571090698,-0.5545129179954529
1660273661013362400,0.429362548828125,-0.07383833825588226,-0.368428111076355,-0.5581781268119812
1660273661015362600,0.431362548828125,-0.06895141303539276,-0.3537673354148865,-0.5642867684364319
1660273661017361700,0.433361572265625,-0.08666650950908661,-0.35559993982315063,-0.5960517525672913
1660273661019360800,0.43536083984375,-0.08666650950908661,-0.35559993982315063,-0.5960517525672913
1660273661021360000,0.437360107421875,-0.09338602423667908,-0.36048686504364014,-0.5966626405715942
1660273661023359200,0.439359130859375,-0.09338602423667908,-0.36048686504364014,-0.5966626405715942
1660273661025358300,0.4413583984375,-0.09338602423667908,-0.36048686504364014,-0.5966626405715942
1660273661027357400,0.443357421875,-0.09827294945716858,-0.36537376046180725,-0.6003278493881226
1660273661029357600,0.445357666015625,-0.10315986722707748,-0.3720932900905609,-0.6021603941917419
1660273661031357400,0.447357421875,-0.11293371021747589,-0.3824779987335205,-0.6064364910125732
1660273661033357600,0.449357666015625,-0.1275944709777832,-0.40080395340919495,-0.6113234162330627
1660273661035357700,0.451357666015625,-0.14347697794437408,-0.4234059751033783,-0.6168211698532104
1660273661037357800,0.45335791015625,-0.14897476136684418,-0.43623414635658264,-0.6149885654449463
1660273661039357700,0.455357666015625,-0.16424639523029327,-0.4637230932712555,-0.6174320578575134
1660273661041357800,0.45735791015625,-0.17402023077011108,-0.4936554729938507,-0.6210972666740417
1660273661043357700,0.459357666015625,-0.17829629778862,-0.510759711265564,-0.6235406994819641
1660273661045358000,0.461358154296875,-0.18623754382133484,-0.5431355834007263,-0.6259841322898865
1660273661047358200,0.463358154296875,-0.19234620034694672,-0.5755113959312439,-0.6235406994819641
1660273661049358300,0.4653583984375,-0.19112446904182434,-0.5901721715927124,-0.6241515874862671
1660273661051358500,0.4673583984375,-0.19417878985404968,-0.6164394021034241,-0.6210972666740417
1660273661053358600,0.469358642578125,-0.18990273773670197,-0.6439283490180969,-0.6149885654449463
1660273661055358700,0.471358642578125,-0.18745927512645721,-0.6555347442626953,-0.611934244632721
1660273661057356300,0.473356201171875,-0.18562667071819305,-0.6921866536140442,-0.6052147150039673
1660273661059356400,0.4753564453125,-0.1831832081079483,-0.7056257128715515,-0.6015495657920837
1660273661061356300,0.477356201171875,-0.18196149170398712,-0.7190647721290588,-0.6027712821960449
1660273661063356400,0.4793564453125,-0.1880701333284378,-0.7502188682556152,-0.6094908118247986
1660273661065356300,0.481356201171875,-0.19967657327651978,-0.7838164567947388,-0.6265950202941895
1660273661067357200,0.483357177734375,-0.20700696110725403,-0.794812023639679,-0.6375905871391296
1660273661069357300,0.485357421875,-0.2235003262758255,-0.8100836873054504,-0.6485861539840698
1660273661071357200,0.487357177734375,-0.2338850349187851,-0.8131380081176758,-0.6491970419883728
1660273661073357300,0.489357421875,-0.24121540784835815,-0.8125271201133728,-0.6479753255844116
1660273661075357200,0.491357177734375,-0.25160011649131775,-0.8082510828971863,-0.641255795955658
1660273661077357300,0.493357421875,-0.2583196461200714,-0.7984772324562073,-0.6327036619186401
1660273661079357200,0.495357177734375,-0.26015225052833557,-0.7899250984191895,-0.630871057510376
1660273661081357300,0.497357421875,-0.26687175035476685,-0.7734317779541016,-0.6210972666740417
1660273661083357200,0.499357177734375,-0.27053695917129517,-0.7587710022926331,-0.6180428862571716
1660273661085357300,0.501357421875,-0.2735912799835205,-0.7502188682556152,-0.6143777370452881
1660273661087357200,0.503357177734375,-0.2790890634059906,-0.7276168465614319,-0.6027712821960449
1660273661089357300,0.505357421875,-0.2845868468284607,-0.6927975416183472,-0.5960517525672913
1660273661091357200,0.507357177734375,-0.2894737720489502,-0.6695846915245056,-0.5948300361633301
1660273661093357300,0.509357421875,-0.30108019709587097,-0.6256023645401001,-0.5881105065345764
1660273661095357400,0.511357421875,-0.3132975101470947,-0.5810092091560364,-0.5887213945388794
1660273661097356500,0.5133564453125,-0.3151301145553589,-0.568181037902832,-0.6064364910125732
1660273661099355600,0.515355712890625,-0.3151301145553589,-0.568181037902832,-0.6064364910125732
1660273661101355800,0.517355712890625,-0.3096323311328888,-0.5834526419639587,-0.6149885654449463
1660273661103356000,0.51935595703125,-0.3047454059123993,-0.6084981560707092,-0.6217080950737
1660273661105355800,0.521355712890625,-0.29130637645721436,-0.6579782366752625,-0.6418666839599609
1660273661107356000,0.52335595703125,-0.2742021381855011,-0.7178429961204529,-0.6614143252372742
1660273661109355800,0.525355712890625,-0.26626089215278625,-0.739834189414978,-0.6681338548660278
1660273661111355600,0.527355712890625,-0.2485457956790924,-0.7722100019454956,-0.6913467645645142
1660273661113355800,0.529355712890625,-0.23510676622390747,-0.7887033820152283,-0.7053966522216797
1660273661115355600,0.531355712890625,-0.23021984100341797,-0.7905359864234924,-0.7102835774421692
1660273661117356500,0.5333564453125,-0.2192242592573166,-0.7832056283950806,-0.7249443531036377
1660273661119356400,0.5353564453125,-0.21067215502262115,-0.7673230767250061,-0.7328855991363525
1660273661121356500,0.5373564453125,-0.20761781930923462,-0.7593818306922913,-0.7347181439399719
1660273661123356400,0.5393564453125,-0.20089830458164215,-0.7447211146354675,-0.7396050691604614
1660273661125356500,0.5413564453125,-0.19662225246429443,-0.739223301410675,-0.7438811659812927
1660273661127356400,0.5433564453125,-0.19723311066627502,-0.7416667938232422,-0.7451028823852539
1660273661129356500,0.5453564453125,-0.1935679316520691,-0.7514405846595764,-0.7457137703895569
1660273661131356400,0.5473564453125,-0.19051359593868256,-0.7648796439170837,-0.7475463151931763
1660273661133356500,0.5493564453125,-0.18745927512645721,-0.7746534943580627,-0.7487680912017822
1660273661135356200,0.551356201171875,-0.18196149170398712,-0.7966446280479431,-0.7524332404136658
1660273661137355300,0.553355224609375,-0.1581377387046814,-0.8925504684448242,-0.7310529947280884
1660273661139354600,0.555354736328125,-0.1581377387046814,-0.8925504684448242,-0.7310529947280884
1660273661141353700,0.557353759765625,-0.1581377387046814,-0.8925504684448242,-0.7310529947280884
1660273661143352800,0.559352783203125,-0.1581377387046814,-0.8925504684448242,-0.7310529947280884
1660273661145353000,0.56135302734375,-0.1526399552822113,-0.9017134308815002,-0.7273877859115601
1660273661147352800,0.563352783203125,-0.1477530300617218,-0.930424153804779,-0.7133378982543945
1660273661149353000,0.56535302734375,-0.13859005272388458,-0.9585239291191101,-0.6974554061889648
1660273661151352800,0.567352783203125,-0.13492485880851746,-0.9701303839683533,-0.6864598393440247
1660273661153352700,0.569352783203125,-0.12881620228290558,-0.995175838470459,-0.6650795340538025
1660273661155352800,0.571352783203125,-0.12392928451299667,-1.024497389793396,-0.6418666839599609
1660273661157353500,0.573353515625,-0.1227075532078743,-1.0391581058502197,-0.6296493411064148
1660273661159354400,0.575354248046875,-0.1172097697854042,-1.0751992464065552,-0.5978843569755554
1660273661161354200,0.577354248046875,-0.11293371021747589,-1.1136837005615234,-0.5685628056526184
1660273661163354400,0.579354248046875,-0.10987938940525055,-1.1350640058517456,-0.5520694851875305
1660273661165354200,0.581354248046875,-0.10438159853219986,-1.1796571016311646,-0.5209153294563293
1660273661167354400,0.583354248046875,-0.09888381510972977,-1.2248611450195312,-0.4830417037010193
1660273661169354500,0.5853544921875,-0.09399688988924026,-1.2468522787094116,-0.46593746542930603
1660273661171354600,0.587354736328125,-0.0817795842885971,-1.2920563220977783,-0.4268420934677124
1660273661173354500,0.5893544921875,-0.07078400999307632,-1.3299299478530884,-0.38347065448760986
1660273661175354600,0.591354736328125,-0.06650795042514801,-1.3464233875274658,-0.36331209540367126
1660273661177353700,0.593353759765625,-0.02863430790603161,-1.4264466762542725,-0.204487144947052
1660273661179352800,0.595352783203125,-0.024358252063393593,-1.4343879222869873,-0.17760907113552094
1660273661181352200,0.597352294921875,-0.024358252063393593,-1.4343879222869873,-0.17760907113552094
1660273661183351300,0.599351318359375,-0.024358252063393593,-1.4343879222869873,-0.17760907113552094
1660273661185351200,0.60135107421875,-0.02496911771595478,-1.4398857355117798,-0.154396191239357
1660273661187351300,0.603351318359375,-0.02191479131579399,-1.4453835487365723,-0.1336267739534378
1660273661189351000,0.605350830078125,-0.0188604649156332,-1.4557682275772095,-0.0884227454662323
1660273661191350800,0.607350830078125,-0.0164170041680336,-1.4685964584350586,-0.051770828664302826
1660273661193351000,0.609350830078125,-0.0164170041680336,-1.4740941524505615,-0.03833179548382759
1660273661195351300,0.611351318359375,-0.015195272862911224,-1.4869223833084106,-0.005345070734620094
1660273661197352000,0.61335205078125,-0.010919216088950634,-1.500361442565918,0.018478672951459885
1660273661199352800,0.615352783203125,-0.007254024967551231,-1.5083026885986328,0.027030786499381065
1660273661201353700,0.617353759765625,-0.0005345070967450738,-1.5217416286468506,0.04108068719506264
1660273661203354600,0.619354736328125,0.011071932502090931,-1.538235068321228,0.04596760869026184
1660273661205354500,0.6213544921875,0.0214566420763731,-1.5443437099456787,0.04657847434282303
1660273661207354600,0.623354736328125,0.04466952010989189,-1.5614479780197144,0.04108068719506264
1660273661209354800,0.625354736328125,0.06910412758588791,-1.5754978656768799,0.026419922709465027
1660273661211354600,0.627354736328125,0.08559749275445938,-1.5822173357009888,0.01725694350898266
1660273661213354800,0.629354736328125,0.12408200651407242,-1.5944346189498901,-0.007177666760981083
1660273661215355000,0.63135498046875,0.1656208336353302,-1.6066519021987915,-0.04138612002134323
1660273661217354000,0.63335400390625,0.406912624835968,-1.612149715423584,-0.2606867551803589
1660273661219353000,0.63535302734375,0.4447862505912781,-1.6029868125915527,-0.29733866453170776
1660273661221352200,0.637352294921875,0.4783838391304016,-1.595045566558838,-0.33826664090156555
1660273661223351300,0.639351318359375,0.4783838391304016,-1.595045566558838,-0.33826664090156555
1660273661225351400,0.641351318359375,0.4783838391304016,-1.595045566558838,-0.33826664090156555
1660273661227350300,0.643350341796875,0.4783838391304016,-1.595045566558838,-0.33826664090156555
1660273661229350400,0.645350341796875,0.5174792408943176,-1.5846607685089111,-0.375529408454895
1660273661231350000,0.64735009765625,0.5932264924049377,-1.554728388786316,-0.4616613984107971
1660273661233350000,0.649349853515625,0.6659194827079773,-1.5229634046554565,-0.5514585971832275
1660273661235349800,0.651349853515625,0.7019605040550232,-1.5021940469741821,-0.6009386777877808
1660273661237350000,0.653349853515625,0.7728208899497986,-1.4624876976013184,-0.698677122592926
1660273661239349800,0.655349853515625,0.8455138802528381,-1.4197272062301636,-0.8006916046142578
1660273661241350000,0.657349853515625,0.8803331851959229,-1.3971251249313354,-0.8489499688148499
1660273661243349800,0.659349853515625,0.9524152874946594,-1.3488668203353882,-0.9497427344322205
1660273661245350000,0.661349853515625,1.0202213525772095,-1.2957215309143066,-1.0432051420211792
1660273661247350000,0.66335009765625,1.0544297695159912,-1.262123942375183,-1.089020013809204
1660273661249350100,0.66535009765625,1.1252901554107666,-1.1967613697052002,-1.1763737201690674
1660273661251350300,0.667350341796875,1.1875983476638794,-1.1185705661773682,-1.2533427476882935
1660273661253350400,0.669350341796875,1.2169198989868164,-1.078864336013794,-1.2887729406356812
1660273661255350500,0.6713505859375,1.2743412256240845,-0.9933432340621948,-1.3590224981307983
1660273661257348000,0.67334814453125,1.3476450443267822,-0.8668941259384155,-1.4469870328903198
1660273661259348200,0.67534814453125,1.3476450443267822,-0.8668941259384155,-1.4469870328903198
1660273661261348400,0.677348388671875,1.3879622220993042,-0.7887033820152283,-1.4946345090866089
1660273661263348200,0.67934814453125,1.4185054302215576,-0.7123452425003052,-1.5380059480667114
1660273661265348400,0.681348388671875,1.434998869895935,-0.6781367659568787,-1.5538884401321411
1660273661267348200,0.68334814453125,1.4563790559768677,-0.6115524768829346,-1.584431767463684
1660273661269348400,0.685348388671875,1.4740941524505615,-0.5541311502456665,-1.6082555055618286
1660273661271347500,0.687347412109375,1.4820353984832764,-0.529696524143219,-1.6155858039855957
1660273661273347600,0.68934765625,1.4899766445159912,-0.4887685477733612,-1.6259706020355225
1660273661275347500,0.691347412109375,1.4936418533325195,-0.4576144218444824,-1.6271922588348389
1660273661277347600,0.69334765625,1.4966962337493896,-0.4472297132015228,-1.6253596544265747
1660273661279347700,0.69534765625,1.4985288381576538,-0.43562328815460205,-1.613753318786621
1660273661281347600,0.69734765625,1.499139666557312,-0.439288467168808,-1.5966490507125854
1660273661283347700,0.69934765625,1.497917890548706,-0.4429536461830139,-1.5838208198547363
1660273661285347800,0.701347900390625,1.5021940469741821,-0.46616652607917786,-1.5526667833328247
1660273661287347700,0.70334765625,1.5040265321731567,-0.4985423982143402,-1.5184582471847534
1660273661289347800,0.705347900390625,1.5052483081817627,-0.5180900692939758,-1.497688889503479
1660273661291347700,0.70734765625,1.5052483081817627,-0.5669593214988708,-1.448819637298584
1660273661293347800,0.709347900390625,1.508913516998291,-0.6274349689483643,-1.3993395566940308
1660273661295348000,0.711347900390625,1.510135293006897,-0.6646977663040161,-1.3706289529800415
1660273661297347000,0.71334716796875,1.525406837463379,-0.85284423828125,-1.252121090888977
1660273661299346200,0.71534619140625,1.525406837463379,-0.85284423828125,-1.252121090888977
1660273661301346300,0.71734619140625,1.5296828746795654,-0.9096547365188599,-1.2221885919570923
1660273661303346200,0.71934619140625,1.5419002771377563,-1.0251082181930542,-1.153160810470581
1660273661305346300,0.72134619140625,1.5516741275787354,-1.1356748342514038,-1.085965633392334
1660273661307346200,0.72334619140625,1.5571718215942383,-1.1900418996810913,-1.0529789924621582
1660273661309346300,0.72534619140625,1.5590044260025024,-1.2969433069229126,-0.9808968901634216
1660273661311346200,0.72734619140625,1.5522849559783936,-1.4068989753723145,-0.9100365042686462
1660273661313346000,0.729345947265625,1.546787142753601,-1.460044264793396,-0.8746063113212585
1660273661315346200,0.73134619140625,1.5290720462799072,-1.5620588064193726,-0.8000807762145996
1660273661317347000,0.73334716796875,1.505859136581421,-1.6536885499954224,-0.7243334650993347
1660273661319347000,0.735346923828125,1.488144040107727,-1.6946165561676025,-0.6864598393440247
1660273661321346800,0.737346923828125,1.4539356231689453,-1.7679203748703003,-0.6076582074165344
1660273661323347000,0.739346923828125,1.4105641841888428,-1.814346194267273,-0.5294674634933472
1660273661325346800,0.741346923828125,1.3891838788986206,-1.8302286863327026,-0.49098294973373413
1660273661327347000,0.743346923828125,1.3378711938858032,-1.842445969581604,-0.4109596014022827
1660273661329347000,0.74534716796875,1.2847260236740112,-1.8345047235488892,-0.3303253948688507
1660273661331347500,0.747347412109375,1.2554044723510742,-1.822898268699646,-0.2900082767009735
1660273661333347600,0.74934765625,1.2016483545303345,-1.7893006801605225,-0.2050980031490326
1660273661335347500,0.751347412109375,1.1442269086837769,-1.7428748607635498,-0.11835514008998871
1660273661337346600,0.7533466796875,0.9823476672172546,-1.5156329870224,0.14676037430763245
1660273661339345700,0.755345703125,0.9530261158943176,-1.4692072868347168,0.19135354459285736
1660273661341344800,0.7573447265625,0.9530261158943176,-1.4692072868347168,0.19135354459285736
1660273661343343900,0.75934375,0.9530261158943176,-1.4692072868347168,0.19135354459285736
1660273661345344000,0.761343994140625,0.9267589449882507,-1.4203380346298218,0.23594669997692108
1660273661347344000,0.76334375,0.8778896927833557,-1.318934440612793,0.32391130924224854
1660273661349343700,0.76534375,0.8497899174690247,-1.2670109272003174,0.36972618103027344
1660273661351343900,0.76734375,0.7996989488601685,-1.1546117067337036,0.4570799171924591
1660273661353343700,0.76934375,0.7526623606681824,-1.0434341430664062,0.5401576161384583
1660273661355344000,0.77134375,0.7270060181617737,-0.986012876033783,0.5823072791099548
1660273661357344800,0.7733447265625,0.68241286277771,-0.871781051158905,0.6611089110374451
1660273661359345400,0.775345458984375,0.6414848566055298,-0.7618253231048584,0.735634446144104
1660273661361345500,0.777345458984375,0.6237697601318359,-0.709901750087738,0.7716755270957947
1660273661363345400,0.779345458984375,0.5889504551887512,-0.6097198724746704,0.8400924205780029
1660273661365345500,0.781345458984375,0.5614615082740784,-0.5150357484817505,0.8993463516235352
1660273661367345700,0.783345703125,0.5474116206169128,-0.4734969139099121,0.926835298538208
1660273661369345500,0.785345458984375,0.5260313153266907,-0.39041924476623535,0.9781479835510254
1660273661371345700,0.787345703125,0.5113705396652222,-0.3177262842655182,1.0221302509307861
1660273661373345500,0.789345458984375,0.5052618980407715,-0.28412869572639465,1.0380127429962158
1660273661375345700,0.791345703125,0.49548807740211487,-0.22304217517375946,1.0716103315353394
1660273661377344800,0.7933447265625,0.4979315400123596,-0.06910412758588791,1.1357512474060059
1660273661379344000,0.79534375,0.500374972820282,-0.06238461285829544,1.1381946802139282
1660273661381343000,0.797343017578125,0.5052618980407715,-0.05688682571053505,1.13758385181427
1660273661383342000,0.799342041015625,0.5052618980407715,-0.05688682571053505,1.13758385181427
1660273661385341200,0.801341064453125,0.5052618980407715,-0.05688682571053505,1.13758385181427
1660273661387340800,0.8033408203125,0.5052618980407715,-0.05688682571053505,1.13758385181427
1660273661389340700,0.805340576171875,0.5113705396652222,-0.05016730725765228,1.1326968669891357
1660273661391340800,0.8073408203125,0.5162574648857117,-0.051999904215335846,1.1326968669891357
1660273661393340200,0.809340087890625,0.5254204869270325,-0.05688682571053505,1.1259773969650269
1660273661395340300,0.81134033203125,0.5339725613594055,-0.06482807546854019,1.1155925989151
1660273661397340200,0.813340087890625,0.539470374584198,-0.07154759019613266,1.1094839572906494
1660273661399344000,0.81534423828125,0.5529094338417053,-0.09048441797494888,1.0942124128341675
1660273661401344300,0.81734423828125,0.5632941126823425,-0.11369729042053223,1.078940749168396
1660273661403344600,0.8193447265625,0.568791925907135,-0.11919508129358292,1.0697777271270752
1660273661405344800,0.8213447265625,0.5773440003395081,-0.14424055814743042,1.0532844066619873
1660273661407345200,0.82334521484375,0.5828418135643005,-0.16806429624557495,1.0337367057800293
1660273661409345300,0.82534521484375,0.5865070223808289,-0.17967073619365692,1.0227410793304443
1660273661411345400,0.827345458984375,0.5889504551887512,-0.20471622049808502,1.0074695348739624
1660273661413345500,0.829345458984375,0.5883395671844482,-0.23220515251159668,0.9921978712081909
1660273661415345700,0.831345703125,0.5828418135643005,-0.24503332376480103,0.9860892295837402
1660273661417343200,0.83334326171875,0.510148823261261,-0.34399348497390747,0.9677632451057434
1660273661419340800,0.8353408203125,0.510148823261261,-0.34399348497390747,0.9677632451057434
1660273661421338600,0.837338623046875,0.4985423982143402,-0.3519347310066223,0.9732610583305359
1660273661423336700,0.839336669921875,0.4985423982143402,-0.3519347310066223,0.9732610583305359
1660273661425334800,0.841334716796875,0.4985423982143402,-0.3519347310066223,0.9732610583305359
1660273661427333000,0.8433330078125,0.48143815994262695,-0.35498905181884766,0.9757044911384583
1660273661429333000,0.8453330078125,0.46555566787719727,-0.3610977232456207,0.9867000579833984
1660273661431333000,0.8473330078125,0.429514616727829,-0.36537376046180725,1.0062477588653564
1660273661433333000,0.8493330078125,0.4087451994419098,-0.36598464846611023,1.0172433853149414
1660273661435333000,0.8513330078125,0.3665955066680908,-0.35987597703933716,1.04289972782135
1660273661437332200,0.853332275390625,0.31955888867378235,-0.35071301460266113,1.0667234659194946
1660273661439332000,0.85533203125,0.2975677251815796,-0.3476586937904358,1.0850493907928467
1660273661441332200,0.857332275390625,0.2462550550699234,-0.3378848433494568,1.1107057332992554
1660273661443332000,0.85933203125,0.19372063875198364,-0.3372739851474762,1.146135926246643
1660273661445332200,0.861332275390625,0.1656208336353302,-0.33544138073921204,1.1607966423034668
1660273661447334000,0.863333984375,0.10758864134550095,-0.3287218511104584,1.1901181936264038
1660273661453415200,0.869415283203125,0.07887797802686691,-0.3262783885002136,1.2237157821655273
1660273661455415000,0.8714150390625,0.0190131813287735,-0.3226132094860077,1.239598274230957
1660273661457415000,0.873414794921875,-0.044516805559396744,-0.31528282165527344,1.2701416015625
1660273661459415800,0.875415771484375,-0.1074359267950058,-0.3073415756225586,1.3012956380844116
1660273661461413000,0.8774130859375,-0.16546812653541565,-0.2957351505756378,1.3348932266235352
1660273661463413000,0.8794130859375,-0.19601137936115265,-0.2920699417591095,1.3507757186889648
1660273661465412900,0.881412841796875,-0.22777637839317322,-0.2853504419326782,1.363603949546814
1660273661467410700,0.88341064453125,-0.2839759886264801,-0.2725222706794739,1.3953689336776733
1660273661469410600,0.88541064453125,-0.3352886736392975,-0.25480717420578003,1.4246904850006104
1660273661471411000,0.887410888671875,-0.36277759075164795,-0.2407572716474533,1.4442381858825684
1660273661473410800,0.889410888671875,-0.41103595495224,-0.21876612305641174,1.4760031700134277
1660273661475411000,0.891410888671875,-0.45440739393234253,-0.1912771761417389,1.505935549736023
1660273661477410800,0.893410888671875,-0.47395506501197815,-0.17722727358341217,1.5230398178100586
1660273661479410700,0.89541064453125,-0.5130504369735718,-0.1454622894525528,1.5560264587402344
1660273661481410600,0.89741064453125,-0.5472589135169983,-0.11736248433589935,1.5877914428710938
1660273661483410700,0.89941064453125,-0.5649740099906921,-0.10270171612501144,1.6048957109451294
1660273661485410600,0.90141064453125,-0.5955172777175903,-0.07521278411149979,1.637271523475647
1660273661487410700,0.90341064453125,-0.6223953366279602,-0.04528038576245308,1.666593074798584
1660273661489410600,0.90541064453125,-0.6388887166976929,-0.03306308016180992,1.6806429624557495
1660273661491410700,0.90741064453125,-0.6639341711997986,-0.00618501054123044,1.7099645137786865
1660273661493410300,0.909410400390625,-0.6908122301101685,0.0164170041680336,1.7380642890930176
1660273661495410200,0.91141015625,-0.7024186849594116,0.026801712810993195,1.753335952758789
1660273661497410300,0.913410400390625,-0.7256315350532532,0.046960264444351196,1.7783814668655396
1660273661499410200,0.91541015625,-0.7488444447517395,0.0671188160777092,1.8052594661712646
1660273661501409300,0.9174091796875,-0.7952702045440674,0.10865765810012817,1.8522961139678955
1660273661503408400,0.919408447265625,-0.7952702045440674,0.10865765810012817,1.8522961139678955
1660273661505408500,0.921408447265625,-0.8056548833847046,0.11598803848028183,1.8657351732254028
1660273661507409200,0.9234091796875,-0.8154287338256836,0.1227075532078743,1.878563404083252
1660273661509409300,0.9254091796875,-0.8380307555198669,0.13614659011363983,1.9011653661727905
1660273661511409000,0.927408935546875,-0.8600218892097473,0.14897476136684418,1.926210880279541
1660273661513408800,0.92940869140625,-0.8697957396507263,0.15386168658733368,1.9372063875198364
1660273661515409000,0.931408935546875,-0.886289119720459,0.16119205951690674,1.9653061628341675
1660273661517408800,0.93340869140625,-0.905836820602417,0.168522447347641,1.9897408485412598
1660273661519407900,0.935407958984375,-0.9162214994430542,0.16730071604251862,2.0007364749908447
1660273661521408800,0.93740869140625,-0.9327148795127869,0.17218764126300812,2.0233383178710938
1660273661523409000,0.939408935546875,-0.9485973715782166,0.16974417865276337,2.048994779586792
1660273661525408800,0.94140869140625,-0.9522625803947449,0.1679115891456604,2.0612120628356934
1660273661527409700,0.94340966796875,-0.9657015800476074,0.1636355221271515,2.082592248916626
1660273661529409800,0.945409912109375,-0.9785297513008118,0.15630514919757843,2.1094703674316406
1660273661531409400,0.947409423828125,-0.9840275645256042,0.15447254478931427,2.119244337081909
1660273661533409500,0.949409423828125,-0.9919688105583191,0.14408783614635468,2.1400136947631836
1660273661535409700,0.95140966796875,-1.0029643774032593,0.1324813961982727,2.1595613956451416
1660273661537409500,0.953409423828125,-1.007851243019104,0.1227075532078743,2.1675026416778564
1660273661539409700,0.95540966796875,-1.021901249885559,0.10560332983732224,2.1839959621429443
1660273661541408800,0.95740869140625,-1.0658835172653198,0.03352123126387596,2.205376148223877
1660273661543407900,0.959407958984375,-1.0658835172653198,0.03352123126387596,2.205376148223877
1660273661545407000,0.961406982421875,-1.0658835172653198,0.03352123126387596,2.205376148223877
1660273661547406300,0.96340625,-1.0658835172653198,0.03352123126387596,2.205376148223877
1660273661549406200,0.96540625,-1.0744355916976929,0.02191479131579399,2.2041544914245605
1660273661551406000,0.967406005859375,-1.0921506881713867,0.0011453722836449742,2.199267625808716
1660273661553406500,0.969406494140625,-1.1086440086364746,-0.020234910771250725,2.1925480365753174
1660273661555406000,0.971406005859375,-1.1196396350860596,-0.03856086730957031,2.180330753326416
1660273661557405700,0.97340576171875,-1.1361329555511475,-0.04711298272013664,2.174222230911255
1660273661559405600,0.975405517578125,-1.153237223625183,-0.06055201590061188,2.1589505672454834
1660273661561406500,0.977406494140625,-1.163011074066162,-0.06727153807878494,2.149787425994873
1660273661563407400,0.979407470703125,-1.180726170539856,-0.07704538106918335,2.130239725112915
1660273661565407000,0.981406982421875,-1.1978304386138916,-0.08865182101726532,2.113135576248169
1660273661567406000,0.983406005859375,-1.2069933414459229,-0.09231700748205185,2.099085807800293
1660273661569406200,0.98540625,-1.219821572303772,-0.10331258177757263,2.0783162117004395
1660273661571406300,0.98740625,-1.2320388555526733,-0.11186470091342926,2.0563251972198486
1660273661573406200,0.98940625,-1.2375366687774658,-0.11675161868333817,2.0477731227874756
1660273661575406300,0.99140625,-1.244866967201233,-0.12652546167373657,2.0276143550872803
1660273661577406200,0.99340625,-1.244866967201233,-0.1356884390115738,2.0080668926239014
1660273661579406800,0.99540673828125,-1.2454779148101807,-0.1399645060300827,1.9995146989822388
1660273661581406200,0.99740625,-1.2112693786621094,-0.16195565462112427,1.9378172159194946
1660273661583405300,0.9994052734375,-1.2112693786621094,-0.16195565462112427,1.9378172159194946
1660273661585404400,1.001404296875,-1.2112693786621094,-0.16195565462112427,1.9378172159194946
1660273661587403500,1.003403564453125,-1.2112693786621094,-0.16195565462112427,1.9378172159194946
1660273661589403400,1.0054033203125,-1.2039390802383423,-0.16378824412822723,1.9286543130874634
1660273661591403500,1.007403564453125,-1.1947760581970215,-0.1601230502128601,1.923156499862671
1660273661593403400,1.0094033203125,-1.180726170539856,-0.1601230502128601,1.9109392166137695
1660273661595403300,1.0114033203125,-1.162400245666504,-0.15890131890773773,1.9017761945724487
1660273661597404700,1.01340478515625,-1.153237223625183,-0.1558469980955124,1.8938349485397339
1660273661599404500,1.015404541015625,-1.133078694343567,-0.14790575206279755,1.8828394412994385
1660273661601405400,1.017405517578125,-1.1104766130447388,-0.14179709553718567,1.8706220388412476
1660273661603406000,1.019406005859375,-1.1007027626037598,-0.13629931211471558,1.8645133972167969
1660273661605407000,1.021406982421875,-1.0738247632980347,-0.12652546167373657,1.8522961139678955
1660273661607407900,1.023407958984375,-1.0438923835754395,-0.11858421564102173,1.837024450302124
1660273661609407700,1.02540771484375,-1.0280098915100098,-0.11552988737821579,1.8266397714614868
1660273661611408000,1.027407958984375,-1.000520944595337,-0.10881037265062332,1.8083138465881348
1660273661613408000,1.029407958984375,-0.9687559008598328,-0.10209085047245026,1.7875443696975708
1660273661615408400,1.031408447265625,-0.9516516923904419,-0.10086912661790848,1.7783814668655396
1660273661617408800,1.03340869140625,-0.9211084246635437,-0.0996473953127861,1.7557793855667114
1660273661619409000,1.035408935546875,-0.8887325525283813,-0.10086912661790848,1.735010027885437
1660273661621408000,1.037407958984375,-0.7696138620376587,-0.13446670770645142,1.6531540155410767
1660273661623407000,1.039406982421875,-0.7567856907844543,-0.144851416349411,1.6439911127090454
1660273661625406700,1.04140673828125,-0.743346631526947,-0.15462526679039001,1.6366606950759888
1660273661627405800,1.04340576171875,-0.743346631526947,-0.15462526679039001,1.6366606950759888
1660273661629404700,1.04540478515625,-0.743346631526947,-0.15462526679039001,1.6366606950759888
1660273661631403800,1.04740380859375,-0.743346631526947,-0.15462526679039001,1.6366606950759888
1660273661633404000,1.04940380859375,-0.733572781085968,-0.16623170673847198,1.6293302774429321
1660273661635403800,1.05140380859375,-0.7066947221755981,-0.1863902509212494,1.6097826957702637
1660273661637403600,1.053403564453125,-0.6834818720817566,-0.21387919783592224,1.5957326889038086
1660273661639403800,1.05540380859375,-0.6730971336364746,-0.2267073690891266,1.5865697860717773
1660273661641404700,1.05740478515625,-0.6541603207588196,-0.2572506368160248,1.571908950805664
1660273661643404800,1.05940478515625,-0.6388887166976929,-0.28718301653862,1.554804801940918
1660273661645404700,1.06140478515625,-0.6297256946563721,-0.3018437922000885,1.5480852127075195
1660273661647404800,1.06340478515625,-0.6156758069992065,-0.3336087763309479,1.5334244966506958
1660273661649404700,1.06540478515625,-0.6046802401542664,-0.36537376046180725,1.5193746089935303
1660273661651412200,1.067412109375,-0.5991824269294739,-0.3812562823295593,1.5120441913604736
1660273661653412400,1.069412353515625,-0.5955172777175903,-0.4142429828643799,1.4986051321029663
1660273661655412200,1.071412109375,-0.592462956905365,-0.44600799679756165,1.47844660282135
1660273661657412400,1.073412353515625,-0.5936846733093262,-0.4600578844547272,1.4729487895965576
1660273661659412200,1.075412109375,-0.6004042029380798,-0.4936554729938507,1.4564554691314697
1660273661661409500,1.077409423828125,-0.6120105981826782,-0.539470374584198,1.4259121417999268
1660273661663409400,1.079409423828125,-0.6120105981826782,-0.539470374584198,1.4259121417999268
1660273661665409300,1.0814091796875,-0.6242279410362244,-0.5657375454902649,1.4051427841186523
1660273661667409200,1.0834091796875,-0.6352235078811646,-0.5907830595970154,1.3837624788284302
1660273661669409000,1.085408935546875,-0.6468299627304077,-0.6054438352584839,1.3727669715881348
1660273661671409000,1.087408935546875,-0.6602689623832703,-0.6243806481361389,1.3458888530731201
1660273661673408800,1.08940869140625,-0.6773731708526611,-0.6414848566055298,1.3171781301498413
1660273661675408600,1.09140869140625,-0.6822600960731506,-0.6482043862342834,1.3025174140930176
1660273661677408800,1.09340869140625,-0.6920339465141296,-0.6561456322669983,1.2707524299621582
1660273661679408600,1.09540869140625,-0.6993643641471863,-0.6616434454917908,1.2359330654144287
1660273661681408500,1.097408447265625,-0.7024186849594116,-0.662865161895752,1.2182179689407349
1660273661683408400,1.099408447265625,-0.704862117767334,-0.662254273891449,1.182176947593689
1660273661685408500,1.101408447265625,-0.7066947221755981,-0.6585890650749207,1.1400272846221924
1660273661687408400,1.103408447265625,-0.705473005771637,-0.6561456322669983,1.1204795837402344
1660273661689408500,1.105408447265625,-0.6993643641471863,-0.6457608938217163,1.0752755403518677
1660273661691408400,1.107408447265625,-0.6883687973022461,-0.6353762149810791,1.0282388925552368
1660273661693408500,1.109408447265625,-0.6804275512695312,-0.6249914765357971,1.0056369304656982
1660273661695408400,1.111408447265625,-0.6675993800163269,-0.6078872680664062,0.9586002826690674
1660273661697408500,1.113408447265625,-0.6474407911300659,-0.5883395671844482,0.9103419184684753
1660273661699408400,1.115408447265625,-0.6370561122894287,-0.5791766047477722,0.8852964639663696
1660273661701407500,1.117407470703125,-0.5832999348640442,-0.5333617329597473,0.7875580191612244
1660273661703406800,1.11940673828125,-0.5832999348640442,-0.5333617329597473,0.7875580191612244
1660273661705406700,1.12140673828125,-0.5668066143989563,-0.5211443901062012,0.7619016766548157
1660273661707406800,1.12340673828125,-0.5313764214515686,-0.4991532564163208,0.7093672752380371
1660273661709406700,1.12540673828125,-0.49350276589393616,-0.47655123472213745,0.6574437022209167
1660273661711405300,1.1274052734375,-0.4721224904060364,-0.46616652607917786,0.633009135723114
1660273661713405200,1.1294052734375,-0.4269184470176697,-0.4435645341873169,0.5792529582977295
1660273661715405300,1.1314052734375,-0.3798818290233612,-0.4179081916809082,0.5273294448852539
1660273661717405200,1.1334052734375,-0.3554472029209137,-0.4081343412399292,0.4973970353603363
1660273661719405300,1.1354052734375,-0.3041345477104187,-0.38736492395401,0.4460843503475189
1660273661721406200,1.13740625,-0.24671320617198944,-0.367817223072052,0.38988474011421204
1660273661723406000,1.139406005859375,-0.22044599056243896,-0.3574325144290924,0.361174076795578
1660273661725406200,1.14140625,-0.1630246639251709,-0.3384957015514374,0.30253100395202637
1660273661727406300,1.14340625,-0.10377073287963867,-0.3213914632797241,0.24694228172302246
1660273661729406200,1.14540625,-0.07567093521356583,-0.31528282165527344,0.21884247660636902
1660273661731406300,1.14740625,-0.017638733610510826,-0.3012329339981079,0.16203200817108154
1660273661733406500,1.149406494140625,0.040393464267253876,-0.28840476274490356,0.10461067408323288
1660273661735406300,1.15140625,0.07093672454357147,-0.2810743749141693,0.07773260027170181
1660273661737406500,1.153406494140625,0.1253037303686142,-0.2719113826751709,0.02519819140434265
1660273661739406300,1.15540625,0.17967073619365692,-0.2615266740322113,-0.02733621932566166
1660273661741405400,1.157405517578125,0.3617085814476013,-0.22182044386863708,-0.19898934662342072
1660273661743404800,1.15940478515625,0.3617085814476013,-0.22182044386863708,-0.19898934662342072
1660273661745404000,1.16140380859375,0.3617085814476013,-0.22182044386863708,-0.19898934662342072
1660273661747403000,1.163403076171875,0.3617085814476013,-0.22182044386863708,-0.19898934662342072
1660273661749403000,1.16540283203125,0.38553231954574585,-0.21510092914104462,-0.22159136831760406
1660273661751403000,1.167403076171875,0.43012550473213196,-0.20288361608982086,-0.26679539680480957
1660273661753403000,1.16940283203125,0.45700356364250183,-0.1955532431602478,-0.2893974184989929
1660273661755402800,1.17140283203125,0.4979315400123596,-0.18700112402439117,-0.33337971568107605
1660273661757403000,1.17340283203125,0.5413029789924622,-0.18150334060192108,-0.3773620128631592
1660273661759402800,1.17540283203125,0.559018075466156,-0.18150334060192108,-0.40301835536956787
1660273661761403100,1.177403076171875,0.5981134176254272,-0.17967073619365692,-0.45005497336387634
1660273661763404000,1.179404052734375,0.6286566853523254,-0.1802816092967987,-0.4977024495601654
1660273661765404000,1.18140380859375,0.6445391774177551,-0.18272507190704346,-0.5227479338645935
1660273661767404000,1.183404052734375,0.6665303111076355,-0.1906663179397583,-0.5703954100608826
1660273661769404000,1.18540380859375,0.6903541088104248,-0.19921842217445374,-0.6198754906654358
1660273661771403800,1.18740380859375,0.6989061832427979,-0.2059379518032074,-0.6443101167678833
1660273661773404400,1.189404296875,0.7141778469085693,-0.21937698125839233,-0.6956228017807007
1660273661775404500,1.191404541015625,0.730060338973999,-0.2364812046289444,-0.7414376735687256
1660273661777404700,1.19340478515625,0.7361689805984497,-0.24808764457702637,-0.7640396952629089
1660273661779404500,1.195404541015625,0.7441102266311646,-0.2700788080692291,-0.8061894178390503
1660273661781403600,1.197403564453125,0.7685448527336121,-0.3617085814476013,-0.9326385259628296
1660273661783402800,1.19940283203125,0.7685448527336121,-0.3617085814476013,-0.9326385259628296
1660273661785401900,1.20140185546875,0.7734317779541016,-0.3739258944988251,-0.9509644508361816
1660273661787401000,1.20340087890625,0.7734317779541016,-0.3739258944988251,-0.9509644508361816
1660273661789401000,1.205401123046875,0.7734317779541016,-0.3739258944988251,-0.9509644508361816
1660273661791401000,1.20740087890625,0.7813730239868164,-0.40508002042770386,-0.9815077185630798
1660273661793400800,1.20940087890625,0.7942011952400208,-0.4386776089668274,-1.010829210281372
1660273661795401000,1.21140087890625,0.8039750456809998,-0.45211663842201233,-1.0279334783554077
1660273661797400800,1.21340087890625,0.824133574962616,-0.48693597316741943,-1.060920238494873
1660273661799401000,1.21540087890625,0.8485682010650635,-0.529085636138916,-1.1006264686584473
1660273661801401900,1.21740185546875,0.8675050139427185,-0.5522985458374023,-1.1256719827651978
1660273661803403000,1.219403076171875,0.9096547365188599,-0.6023895144462585,-1.175152063369751
1660273661805404000,1.22140380859375,0.9573022127151489,-0.6567565202713013,-1.229519009590149
1660273661807404800,1.22340478515625,0.9841802716255188,-0.6866888999938965,-1.2594513893127441
1660273661809404400,1.225404296875,1.0458776950836182,-0.7453319430351257,-1.327257513999939
1660273661811404500,1.227404541015625,1.1106293201446533,-0.8033641576766968,-1.3987287282943726
1660273661813404700,1.22940478515625,1.1436160802841187,-0.8296313881874084,-1.4372131824493408
1660273661815404500,1.231404541015625,1.2095896005630493,-0.8785005807876587,-1.517236590385437
1660273661817404700,1.23340478515625,1.2773956060409546,-0.9206503033638,-1.6015359163284302
1660273661819404500,1.235404541015625,1.3036627769470215,-0.9401979446411133,-1.6418530941009521
1660273661821404000,1.23740380859375,1.5290720462799072,-1.0067822933197021,-2.0279200077056885
1660273661823403300,1.2394033203125,1.5290720462799072,-1.0067822933197021,-2.0279200077056885
1660273661825402400,1.24140234375,1.5492305755615234,-1.0043388605117798,-2.071291446685791
1660273661827401500,1.2434013671875,1.5492305755615234,-1.0043388605117798,-2.071291446685791
1660273661829400600,1.245400634765625,1.5681674480438232,-1.0012844800949097,-2.113440990447998
1660273661831400200,1.247400146484375,1.5681674480438232,-1.0012844800949097,-2.113440990447998
1660273661833399600,1.249399658203125,1.5883259773254395,-0.9963975548744202,-2.155590772628784
1660273661835399400,1.2513994140625,1.6280322074890137,-0.986012876033783,-2.2453880310058594
1660273661837399600,1.253399658203125,1.6451364755630493,-0.9823476672172546,-2.2881484031677246
1660273661839399400,1.2553994140625,1.687286138534546,-0.9689086079597473,-2.3718371391296387
1660273661841399600,1.257399658203125,1.7245489358901978,-0.9536370038986206,-2.4579689502716064
1660273661843402500,1.259402587890625,1.7398205995559692,-0.9450848698616028,-2.4976751804351807
1660273661845403000,1.26140283203125,1.7801376581192017,-0.9273697733879089,-2.5746443271636963
1660273661847403300,1.2634033203125,1.8167896270751953,-0.9078221321105957,-2.644282817840576
1660273661849403600,1.265403564453125,1.8332829475402832,-0.8943830728530884,-2.6791021823883057
1660273661851403800,1.26740380859375,1.867491364479065,-0.8662832975387573,-2.738966941833496
1660273661853404000,1.26940380859375,1.9016999006271362,-0.8253552913665771,-2.7902796268463135
1660273661855404000,1.271404052734375,1.91636061668396,-0.8021424412727356,-2.8128817081451416
1660273661857403100,1.273403076171875,1.9493473768234253,-0.7483862638473511,-2.852587938308716
1660273661859403300,1.2754033203125,1.9786689281463623,-0.6842454075813293,-2.886796474456787
1660273661861400600,1.277400634765625,2.0092122554779053,-0.6078872680664062,-2.9124526977539062
1660273661863400700,1.279400634765625,2.022040367126465,-0.568181037902832,-2.9246699810028076
1660273661865400600,1.281400634765625,2.050140142440796,-0.47716212272644043,-2.9460504055023193
1660273661867400700,1.283400634765625,2.0629682540893555,-0.4337906837463379,-2.956434965133667
1660273661869400300,1.285400390625,2.0831267833709717,-0.33971744775772095,-2.9723174571990967
1660273661871400200,1.287400146484375,2.1026744842529297,-0.2413681298494339,-2.9820914268493652
1660273661873400300,1.289400390625,2.109394073486328,-0.19310978055000305,-2.9863674640655518
1660273661875400200,1.291400146484375,2.117946147918701,-0.09170614182949066,-2.9943087100982666
1660273661877400300,1.293400390625,2.120389699935913,0.007254024967551231,-2.994919538497925
1660273661879400400,1.295400390625,2.1216113567352295,0.055512379854917526,-2.996141195297241
1660273661881400300,1.297400390625,2.117335319519043,0.15080735087394714,-2.98697829246521
1660273661883400400,1.299400390625,2.10878324508667,0.24060454964637756,-2.975371837615967
1660273661885400800,1.30140087890625,2.100841999053955,0.2833651304244995,-2.969874143600464
1660273661887400700,1.303400634765625,2.084348678588867,0.36277759075164795,-2.948493719100952
1660273661889400800,1.30540087890625,2.067244291305542,0.4373031556606293,-2.9246699810028076
1660273661891401000,1.30740087890625,2.0580813884735107,0.4715116024017334,-2.911841869354248
1660273661893400800,1.30940087890625,2.0354793071746826,0.5295438170433044,-2.8794660568237305
1660273661895401000,1.31140087890625,2.0159316062927246,0.572915256023407,-2.8464794158935547
1660273661897401000,1.313401123046875,2.0037143230438232,0.5875760316848755,-2.8263208866119385
1660273661899401000,1.31540087890625,1.9841666221618652,0.6077345609664917,-2.7878363132476807
1660273661901400000,1.317400146484375,1.934686541557312,0.6144540905952454,-2.696817398071289
1660273661903399200,1.319399169921875,1.934686541557312,0.6144540905952454,-2.696817398071289
1660273661905399300,1.3213994140625,1.9243018627166748,0.6095671653747559,-2.671771764755249
1660273661907399200,1.323399169921875,1.898034691810608,0.5942955017089844,-2.6198482513427734
1660273661909399300,1.3253994140625,1.8839848041534424,0.5894085764884949,-2.593581199645996
1660273661911399200,1.327399169921875,1.8546632528305054,0.5680283308029175,-2.534327268600464
1660273661913399000,1.32939892578125,1.8247308731079102,0.5478697419166565,-2.476294994354248
1660273661915399000,1.33139892578125,1.8051831722259521,0.5362633466720581,-2.4439191818237305
1660273661917399300,1.3333994140625,1.7679203748703003,0.5099961161613464,-2.3877196311950684
1660273661919399200,1.335399169921875,1.7288249731063843,0.48372891545295715,-2.3235785961151123
1660273661921400000,1.337400146484375,1.7092772722244263,0.4709007441997528,-2.2912027835845947
1660273661923400200,1.339400146484375,1.6671276092529297,0.4348596930503845,-2.2288944721221924
1660273661925400000,1.341400146484375,1.6200909614562988,0.3963751792907715,-2.165975332260132
1660273661927400200,1.343400146484375,1.5962672233581543,0.37132972478866577,-2.1342103481292725
1660273661929400300,1.345400390625,1.546787142753601,0.32184961438179016,-2.074345588684082
1660273661931400200,1.347400146484375,1.4948636293411255,0.2644282877445221,-2.012648344039917
1660273661933400300,1.349400390625,1.4679855108261108,0.23449589312076569,-1.9814941883087158
1660273661935400200,1.351400146484375,1.415451169013977,0.168522447347641,-1.9216293096542358
1660273661937400300,1.353400390625,1.3616949319839478,0.09644035249948502,-1.8611537218093872
1660273661939400200,1.355400146484375,1.3354277610778809,0.0567341111600399,-1.8306103944778442
1660273661941399300,1.3573994140625,1.158276915550232,-0.2566397488117218,-1.6113097667694092
1660273661943398400,1.3593984375,1.158276915550232,-0.2566397488117218,-1.6113097667694092
1660273661945397200,1.361397216796875,1.158276915550232,-0.2566397488117218,-1.6113097667694092
1660273661947396400,1.363396240234375,1.158276915550232,-0.2566397488117218,-1.6113097667694092
1660273661949396500,1.365396484375,1.1332314014434814,-0.358654260635376,-1.546558141708374
1660273661951396400,1.367396240234375,1.0874165296554565,-0.4093560576438904,-1.514793038368225
1660273661953396500,1.369396484375,1.0464885234832764,-0.5150357484817505,-1.451874017715454
1660273661955396400,1.371396240234375,1.0269408226013184,-0.5700136423110962,-1.4219415187835693
1660273661957396200,1.373396240234375,0.986012876033783,-0.6769150495529175,-1.3584115505218506
1660273661959396400,1.375396240234375,0.9493609666824341,-0.7832056283950806,-1.2961033582687378
1660273661961397000,1.37739697265625,0.9175959825515747,-0.8852201104164124,-1.2386820316314697
1660273661963398000,1.37939794921875,0.9017134308815002,-0.9340893030166626,-1.209971308708191
1660273661965398000,1.38139794921875,0.8711702227592468,-1.0214430093765259,-1.154382586479187
1660273661967398000,1.38339794921875,0.8589528799057007,-1.0660362243652344,-1.126282811164856
1660273661969398000,1.38539794921875,0.833296537399292,-1.1393400430679321,-1.0798569917678833
1660273661971398000,1.38739794921875,0.8106945157051086,-1.2065352201461792,-1.0334312915802002
1660273661973398000,1.38939794921875,0.7978663444519043,-1.2370784282684326,-1.013272762298584
1660273661975398100,1.391398193359375,0.7777078151702881,-1.2902237176895142,-0.9729556441307068
1660273661977398000,1.39339794921875,0.7569383978843689,-1.3317625522613525,-0.9424123764038086
1660273661979398100,1.395398193359375,0.7459428310394287,-1.3525320291519165,-0.9283624291419983
1660273661981397200,1.397397216796875,0.6750824451446533,-1.433166265487671,-0.8550586104393005
1660273661983396400,1.399396240234375,0.6750824451446533,-1.433166265487671,-0.8550586104393005
1660273661985395500,1.4013955078125,0.6750824451446533,-1.433166265487671,-0.8550586104393005
1660273661987394600,1.40339453125,0.6750824451446533,-1.433166265487671,-0.8550586104393005
1660273661989394700,1.405394775390625,0.6665303111076355,-1.431944489479065,-0.851393461227417
1660273661991394800,1.407394775390625,0.6573673486709595,-1.4325553178787231,-0.8477282524108887
1660273661993394700,1.409394775390625,0.6384305357933044,-1.4270576238632202,-0.8385652899742126
1660273661995394800,1.411394775390625,0.6194937229156494,-1.4093425273895264,-0.8342891931533813
1660273661997394700,1.413394775390625,0.6097198724746704,-1.4001795053482056,-0.8294022679328918
1660273661999394800,1.415394775390625,0.5865070223808289,-1.373301386833191,-0.8239045143127441
1660273662001395700,1.417395751953125,0.5651267170906067,-1.3421473503112793,-0.8177958726882935
1660273662003396600,1.419396728515625,0.549244225025177,-1.3256539106369019,-0.8110763430595398
1660273662005397500,1.4213974609375,0.5254204869270325,-1.2835042476654053,-0.8068002462387085
1660273662007398400,1.4233984375,0.49732068181037903,-1.2383002042770386,-0.801913321018219
1660273662009398300,1.425398193359375,0.4826599061489105,-1.214476466178894,-0.7988590002059937
1660273662011398400,1.4273984375,0.4533383846282959,-1.166828989982605,-0.7921395301818848
1660273662013398800,1.429398681640625,0.41974079608917236,-1.1173489093780518,-0.7878634333610535
1660273662015398700,1.431398681640625,0.40508002042770386,-1.0947468280792236,-0.7866417169570923
1660273662017399300,1.4333994140625,0.37087157368659973,-1.051375389099121,-0.7793113589286804
1660273662019399200,1.435399169921875,0.3384957015514374,-1.0073931217193604,-0.7701483368873596
1660273662021398300,1.437398193359375,0.2059379518032074,-0.8668941259384155,-0.709061861038208
1660273662023397400,1.4393974609375,0.1912771761417389,-0.8577311635017395,-0.6962336897850037
1660273662025396700,1.441396728515625,0.17722727358341217,-0.8479573130607605,-0.6846272349357605
1660273662027395800,1.443395751953125,0.17722727358341217,-0.8479573130607605,-0.6846272349357605
1660273662029395000,1.44539501953125,0.17722727358341217,-0.8479573130607605,-0.6846272349357605
1660273662031394000,1.44739404296875,0.17722727358341217,-0.8479573130607605,-0.6846272349357605
1660273662033394000,1.449393798828125,0.16378824412822723,-0.8381834626197815,-0.670577347278595
1660273662035393800,1.451393798828125,0.1399645060300827,-0.8308531045913696,-0.6418666839599609
1660273662037394000,1.453393798828125,0.12102767825126648,-0.8290205001831055,-0.6076582074165344
1660273662039393800,1.455393798828125,0.11247556656599045,-0.8314639329910278,-0.5911648273468018
1660273662041394000,1.457393798828125,0.0947604700922966,-0.8412377834320068,-0.5551238059997559
1660273662043393800,1.459393798828125,0.08009970188140869,-0.8601745963096619,-0.518471896648407
1660273662045394000,1.461393798828125,0.07399105280637741,-0.8699484467506409,-0.498924195766449
1660273662047393800,1.463393798828125,0.064217209815979,-0.8949939608573914,-0.4616613984107971
1660273662049394200,1.465394287109375,0.055665094405412674,-0.9224829077720642,-0.41890084743499756
1660273662051394300,1.467394287109375,0.05016730725765228,-0.9389762282371521,-0.3962988257408142
1660273662053394400,1.46939453125,0.04466952010989189,-0.975628137588501,-0.35475999116897583
1660273662055394600,1.47139453125,0.03856086730957031,-1.0183887481689453,-0.31383201479911804
1660273662057394700,1.473394775390625,0.034895677119493484,-1.0483211278915405,-0.2906191349029541
1660273662059394800,1.475394775390625,0.03367394581437111,-1.0978012084960938,-0.24663683772087097
1660273662061392400,1.477392333984375,0.028787024319171906,-1.1875983476638794,-0.1837177276611328
1660273662063392300,1.479392333984375,0.028787024319171906,-1.1875983476638794,-0.1837177276611328
1660273662065392400,1.481392333984375,0.02756529487669468,-1.2541826963424683,-0.14523321390151978
1660273662067392300,1.483392333984375,0.02695442922413349,-1.3219887018203735,-0.1036943718791008
1660273662069392400,1.485392333984375,0.02451096847653389,-1.3586406707763672,-0.08720101416110992
1660273662071392300,1.487392333984375,0.02695442922413349,-1.4288901090621948,-0.05054909735918045
1660273662073392400,1.489392333984375,0.028176158666610718,-1.4942528009414673,-0.01817324012517929
1660273662075392300,1.491392333984375,0.028787024319171906,-1.528461217880249,-0.0022907445672899485
1660273662077392400,1.493392333984375,0.029397889971733093,-1.5968780517578125,0.030695978552103043
1660273662079392300,1.495392333984375,0.028176158666610718,-1.6616297960281372,0.0630718395113945
1660273662081392400,1.497392333984375,0.028176158666610718,-1.6909513473510742,0.07651086896657944
1660273662083392500,1.499392578125,0.02756529487669468,-1.744707465171814,0.10277807712554932
1660273662085392400,1.501392333984375,0.02451096847653389,-1.796631097793579,0.12660181522369385
1660273662087392500,1.503392578125,0.023289237171411514,-1.8167896270751953,0.13698652386665344
1660273662089392600,1.505392578125,0.020845776423811913,-1.8534414768218994,0.15836681425571442
1660273662091392500,1.507392578125,0.01595885492861271,-1.8852064609527588,0.1742493063211441
1660273662093392600,1.509392578125,0.013515393249690533,-1.8962020874023438,0.18096883594989777
1660273662095392500,1.511392578125,0.00862847175449133,-1.9145280122756958,0.19074267148971558
1660273662097392000,1.51339208984375,0.0031306843739002943,-1.927356243133545,0.19685132801532745
1660273662099392000,1.51539208984375,-0.0011453722836449742,-1.9285778999328613,0.1999056488275528
1660273662101391000,1.51739111328125,-0.02191479131579399,-1.9352974891662598,0.19807305932044983
1660273662103390500,1.519390380859375,-0.02191479131579399,-1.9352974891662598,0.19807305932044983
1660273662105390300,1.521390380859375,-0.029856039211153984,-1.9304105043411255,0.19807305932044983
1660273662107390500,1.523390380859375,-0.03901901841163635,-1.9206366539001465,0.19257527589797974
1660273662109390300,1.525390380859375,-0.05429064854979515,-1.9016999006271362,0.1840231567621231
1660273662111390200,1.52739013671875,-0.06039930135011673,-1.8913151025772095,0.1797471046447754
1660273662113390300,1.529390380859375,-0.07322747260332108,-1.8632153272628784,0.16691893339157104
1660273662115390200,1.53139013671875,-0.08483391255140305,-1.8265634775161743,0.15042556822299957
1660273662117390000,1.53339013671875,-0.08972083032131195,-1.8094592094421387,0.14248432219028473
1660273662119390200,1.53539013671875,-0.09949467331171036,-1.7666985988616943,0.12171489745378494
1660273662121391000,1.53739111328125,-0.10560332983732224,-1.719662070274353,0.09666942805051804
1660273662123391000,1.539390869140625,-0.10804679244756699,-1.6940057277679443,0.07956519722938538
1660273662125390600,1.541390625,-0.11293371021747589,-1.6433038711547852,0.047189339995384216
1660273662127390700,1.543390625,-0.1172097697854042,-1.5907694101333618,0.011759156361222267
1660273662129390600,1.545390625,-0.11598803848028183,-1.5638914108276367,-0.007177666760981083
1660273662131390700,1.547390625,-0.11476630717515945,-1.5119678974151611,-0.05115996301174164
1660273662133390600,1.549390625,-0.11537717282772064,-1.4594334363937378,-0.09697485715150833
1660273662135390700,1.551390625,-0.11171197891235352,-1.433166265487671,-0.1189660057425499
1660273662137390800,1.553390869140625,-0.10926852375268936,-1.3781883716583252,-0.164170041680336
1660273662139390700,1.555390625,-0.09827294945716858,-1.3256539106369019,-0.20754146575927734
1660273662141389800,1.557389892578125,-0.06589708477258682,-1.1338422298431396,-0.3718642294406891
1660273662143389000,1.559388916015625,-0.06589708477258682,-1.1338422298431396,-0.3718642294406891
1660273662145388000,1.561387939453125,-0.06589708477258682,-1.1338422298431396,-0.3718642294406891
1660273662147387100,1.56338720703125,-0.06589708477258682,-1.1338422298431396,-0.3718642294406891
1660273662149387300,1.56538720703125,-0.06101016700267792,-1.1075750589370728,-0.39385536313056946
1660273662151387100,1.56738720703125,-0.05062545835971832,-1.0562623739242554,-0.43478333950042725
1660273662153387000,1.569386962890625,-0.04573853686451912,-1.0263299942016602,-0.4586070775985718
1660273662155387400,1.571387451171875,-0.0365755558013916,-0.9744064211845398,-0.5001459121704102
1660273662157387800,1.5733876953125,-0.02802344225347042,-0.9261480569839478,-0.5422956347465515
1660273662159387600,1.5753876953125,-0.023136520758271217,-0.9023243188858032,-0.5636758804321289
1660273662161388800,1.577388916015625,-0.013362676836550236,-0.8552877306938171,-0.6046038866043091
1660273662163389400,1.579389404296875,-0.0011453722836449742,-0.8119162917137146,-0.6430884003639221
1660273662165389600,1.5813896484375,0.004963280167430639,-0.7917577028274536,-0.6620252132415771
1660273662167389700,1.5833896484375,0.017180584371089935,-0.7514405846595764,-0.7017314434051514
1660273662169388800,1.585388916015625,0.03061962127685547,-0.7153995633125305,-0.7420485615730286
1660273662171388700,1.587388671875,0.03978259861469269,-0.6995170712471008,-0.7634288668632507
1660273662173388800,1.589388916015625,0.0544433668255806,-0.671417236328125,-0.8006916046142578
1660273662175389200,1.59138916015625,0.0697149932384491,-0.643317461013794,-0.841619610786438
1660273662177389000,1.59338916015625,0.07582364976406097,-0.6298784017562866,-0.8581129312515259
1660273662179389200,1.59538916015625,0.09170614182949066,-0.6030003428459167,-0.8965974450111389
1660273662181388300,1.59738818359375,0.1295797973871231,-0.5095379948616028,-1.0151053667068481
1660273662183387400,1.599387451171875,0.1295797973871231,-0.5095379948616028,-1.0151053667068481
1660273662185387000,1.601386962890625,0.1295797973871231,-0.5095379948616028,-1.0151053667068481
1660273662187386000,1.60338623046875,0.1295797973871231,-0.5095379948616028,-1.0151053667068481
1660273662189386000,1.605385986328125,0.13446670770645142,-0.49670979380607605,-1.0297660827636719
1660273662191386000,1.60738623046875,0.14179709553718567,-0.4649448096752167,-1.0584768056869507
1660273662193386000,1.609385986328125,0.14729487895965576,-0.43562328815460205,-1.0798569917678833
1660273662195385600,1.611385498046875,0.14851661026477814,-0.41607558727264404,-1.0951286554336548
1660273662197385700,1.6133857421875,0.15218180418014526,-0.38003453612327576,-1.1189523935317993
1660273662199385600,1.615385498046875,0.15279266238212585,-0.34460434317588806,-1.1415544748306274
1660273662201386200,1.61738623046875,0.14912748336791992,-0.3281109929084778,-1.1519391536712646
1660273662203387100,1.61938720703125,0.144851416349411,-0.2957351505756378,-1.1714868545532227
1660273662205388000,1.621387939453125,0.13874277472496033,-0.2603049576282501,-1.1910345554351807
1660273662207389000,1.623388916015625,0.13446670770645142,-0.24564418196678162,-1.1995866298675537
1660273662209388800,1.625388916015625,0.12163854390382767,-0.21387919783592224,-1.2160799503326416
1660273662211389000,1.627388916015625,0.11064296960830688,-0.18272507190704346,-1.232573390007019
1660273662213389000,1.62938916015625,0.10209085047245026,-0.1656208336353302,-1.2405146360397339
1660273662215389000,1.631388916015625,0.08865182101726532,-0.1301906555891037,-1.2533427476882935
1660273662217389000,1.63338916015625,0.07887797802686691,-0.09353873878717422,-1.269836187362671
1660273662219389000,1.635388916015625,0.0746019184589386,-0.07338018715381622,-1.278388261795044
1660273662221388000,1.637387939453125,0.04161519557237625,0.09766208380460739,-1.3235923051834106
1660273662223387100,1.63938720703125,0.04161519557237625,0.09766208380460739,-1.3235923051834106
1660273662225386200,1.64138623046875,0.0391717329621315,0.11659890413284302,-1.3278683423995972
1660273662227385300,1.64338525390625,0.0391717329621315,0.11659890413284302,-1.3278683423995972
1660273662229385500,1.645385498046875,0.0342848114669323,0.13492485880851746,-1.3290899991989136
1660273662231384600,1.647384521484375,0.0342848114669323,0.13492485880851746,-1.3290899991989136
1660273662233384400,1.649384521484375,0.03306308016180992,0.15630514919757843,-1.3303117752075195
1660273662235384000,1.651384033203125,0.028787024319171906,0.19540052115917206,-1.332755208015442
1660273662237384200,1.65338427734375,0.02756529487669468,0.21678079664707184,-1.3315335512161255
1660273662239384000,1.655384033203125,0.02451096847653389,0.25648704171180725,-1.3309226036071777
1660273662241384200,1.65738427734375,0.020234910771250725,0.29741501808166504,-1.3254249095916748
1660273662243382000,1.659382080078125,0.019624045118689537,0.3157409727573395,-1.3211487531661987
1660273662245382100,1.661382080078125,0.017791450023651123,0.3554472029209137,-1.3168727159500122
1660273662247382000,1.663382080078125,0.017180584371089935,0.39271000027656555,-1.3058772087097168
1660273662249382100,1.665382080078125,0.01595885492861271,0.4104250967502594,-1.3028228282928467
1660273662251382000,1.667382080078125,0.01595885492861271,0.4452444016933441,-1.2893837690353394
1660273662253382000,1.6693818359375,0.01290452852845192,0.47395506501197815,-1.2735012769699097
1660273662255381500,1.671381591796875,0.01290452852845192,0.48983755707740784,-1.267392635345459
1660273662257381400,1.67338134765625,0.011682798154652119,0.5148830413818359,-1.2496775388717651
1660273662259381500,1.675381591796875,0.010461067780852318,0.5411502718925476,-1.2264647483825684
1660273662261378600,1.677378662109375,0.009239336475729942,0.5643631219863892,-1.1995866298675537
1660273662263378700,1.679378662109375,0.007406740915030241,0.5747478604316711,-1.18492591381073
1660273662265378600,1.681378662109375,0.004352414980530739,0.5942955017089844,-1.1549934148788452
1660273662267378400,1.68337841796875,0.004352414980530739,0.6028476357460022,-1.1391109228134155
1660273662269378300,1.68537841796875,0.0037415495608001947,0.6144540905952454,-1.1018482446670532
1660273662271378200,1.687378173828125,0.0031306843739002943,0.6175084114074707,-1.068861484527588
1660273662273378300,1.68937841796875,0.004352414980530739,0.6181192994117737,-1.048092007637024
1660273662275377700,1.691377685546875,0.00985020212829113,0.610788881778717,-1.012050986289978
1660273662277377500,1.69337744140625,0.017180584371089935,0.591852068901062,-0.9766207933425903
1660273662279377400,1.69537744140625,0.022067507728934288,0.5784130096435547,-0.9625709056854248
1660273662281377500,1.69737744140625,0.03306308016180992,0.5454263091087341,-0.9283624291419983
1660273662283377400,1.69937744140625,0.04589125141501427,0.5093852281570435,-0.9039278626441956
1660273662285377500,1.70137744140625,0.052610769867897034,0.4873940944671631,-0.8904888033866882
1660273662287377400,1.70337744140625,0.07032585889101028,0.44768786430358887,-0.8629998564720154
1660273662289377500,1.70537744140625,0.08559749275445938,0.40248385071754456,-0.841008722782135
1660273662291377400,1.70737744140625,0.09781479835510254,0.37804922461509705,-0.831234872341156
1660273662293377500,1.70937744140625,0.11308643221855164,0.32673653960227966,-0.8068002462387085
1660273662295377400,1.71137744140625,0.12652546167373657,0.27114781737327576,-0.7915286421775818
1660273662297377500,1.71337744140625,0.13385584950447083,0.24121540784835815,-0.7848091125488281
1660273662299377400,1.71537744140625,0.14668402075767517,0.18012888729572296,-0.7713701128959656
1660273662301376500,1.71737646484375,0.1601230502128601,0.04329507425427437,-0.7457137703895569
1660273662303375600,1.719375732421875,0.1601230502128601,0.04329507425427437,-0.7457137703895569
1660273662305375700,1.721375732421875,0.16134478151798248,0.009086620062589645,-0.7389942407608032
1660273662307375600,1.723375732421875,0.16378824412822723,-0.06360634416341782,-0.7273877859115601
1660273662309375700,1.725375732421875,0.16317738592624664,-0.10025826096534729,-0.7194465398788452
1660273662311375600,1.727375732421875,0.16317738592624664,-0.16928602755069733,-0.7060074806213379
1660273662313375700,1.729375732421875,0.16317738592624664,-0.22915083169937134,-0.6876815557479858
1660273662315375600,1.731375732421875,0.16378824412822723,-0.2554180324077606,-0.6785185933113098
1660273662317375700,1.733375732421875,0.16317738592624664,-0.30367639660835266,-0.660192608833313
1660273662319376000,1.7353759765625,0.16439910233020782,-0.3433826267719269,-0.6394231915473938
1660273662321376800,1.737376708984375,0.16378824412822723,-0.3610977232456207,-0.6278167366981506
1660273662323376600,1.739376708984375,0.16684256494045258,-0.3922518491744995,-0.6009386777877808
1660273662325376800,1.741376708984375,0.1650099754333496,-0.41974079608917236,-0.5734497308731079
1660273662327377000,1.743376953125,0.1656208336353302,-0.4282929003238678,-0.5600107312202454
1660273662329376800,1.745376708984375,0.16684256494045258,-0.4441753923892975,-0.5258022546768188
1660273662331377000,1.747376953125,0.1650099754333496,-0.4533383846282959,-0.4922046661376953
1660273662333376800,1.749376708984375,0.15951219201087952,-0.45700356364250183,-0.4732678532600403
1660273662335377200,1.751377197265625,0.15401439368724823,-0.4576144218444824,-0.43478333950042725
1660273662337377000,1.753376953125,0.14118622243404388,-0.4478405714035034,-0.3969096839427948
1660273662339377200,1.755377197265625,0.13263411819934845,-0.44173192977905273,-0.37430769205093384
1660273662341376300,1.757376220703125,0.028787024319171906,-0.3427717685699463,-0.19776763021945953
1660273662343375400,1.759375244140625,0.028787024319171906,-0.3427717685699463,-0.19776763021945953
1660273662345374500,1.76137451171875,0.028787024319171906,-0.3427717685699463,-0.19776763021945953
1660273662347373600,1.76337353515625,0.00862847175449133,-0.32016974687576294,-0.16661348938941956
1660273662349373400,1.76537353515625,-0.014584408141672611,-0.296956866979599,-0.13668109476566315
1660273662351373600,1.76737353515625,-0.03779728710651398,-0.2700788080692291,-0.10247264802455902
1660273662353373400,1.76937353515625,-0.08972083032131195,-0.21021400392055511,-0.03405573591589928
1660273662355373300,1.771373291015625,-0.1471421718597412,-0.13813190162181854,0.03680463135242462
1660273662357373400,1.77337353515625,-0.18012888729572296,-0.10392344743013382,0.07406741380691528
1660273662359373300,1.775373291015625,-0.2491566687822342,-0.0190131813287735,0.1485929638147354
1660273662361374200,1.777374267578125,-0.32307136058807373,0.06834054738283157,0.22617286443710327
1660273662363375000,1.779375,-0.36705365777015686,0.11354457587003708,0.2652682363986969
1660273662365374700,1.781374755859375,-0.4519639313220978,0.208839550614357,0.3459024429321289
1660273662367374800,1.783374755859375,-0.5460371971130371,0.3047454059123993,0.42042800784111023
1660273662369374700,1.785374755859375,-0.5930737853050232,0.3511711657047272,0.4570799171924591
1660273662371374800,1.787374755859375,-0.6908122301101685,0.4415792226791382,0.5346598029136658
1660273662373375000,1.789375,-0.7916049957275391,0.5271003246307373,0.6067419052124023
1660273662375374800,1.791374755859375,-0.8398633599281311,0.5680283308029175,0.6397286057472229
1660273662377375500,1.79337548828125,-0.9369909167289734,0.6462190747261047,0.707534670829773
1660273662379375000,1.795375,-1.031675100326538,0.7183011770248413,0.7692320346832275
1660273662381374200,1.797374267578125,-1.314505696296692,0.8930086493492126,0.9622654914855957
1660273662383373300,1.799373291015625,-1.314505696296692,0.8930086493492126,0.9622654914855957
1660273662385372400,1.801372314453125,-1.314505696296692,0.8930086493492126,0.9622654914855957
1660273662387371300,1.803371337890625,-1.314505696296692,0.8930086493492126,0.9622654914855957
1660273662389371400,1.805371337890625,-1.3481032848358154,0.9088911414146423,0.9873109459877014
1660273662391371500,1.80737158203125,-1.4079680442810059,0.9272170662879944,1.033125877380371
1660273662393371100,1.80937109375,-1.4342352151870728,0.9296605587005615,1.0532844066619873
1660273662395371300,1.811371337890625,-1.4800500869750977,0.9211084246635437,1.0966558456420898
1660273662397371400,1.813371337890625,-1.5203672647476196,0.9003390073776245,1.1381946802139282
1660273662399371300,1.815371337890625,-1.5368605852127075,0.8868999481201172,1.1577423810958862
1660273662401372400,1.817372314453125,-1.5643495321273804,0.8508589267730713,1.1943942308425903
1660273662403373600,1.81937353515625,-1.5893950462341309,0.8068766593933105,1.2322678565979004
1660273662405374500,1.82137451171875,-1.598557949066162,0.7848854660987854,1.2463178634643555
1660273662407375000,1.823375,-1.610775351524353,0.724409818649292,1.2823588848114014
1660273662409375200,1.825375244140625,-1.6181056499481201,0.6596581339836121,1.3129020929336548
1660273662411375000,1.827375,-1.6223816871643066,0.6266713738441467,1.3281737565994263
1660273662413375200,1.829375244140625,-1.6266578435897827,0.552756667137146,1.3562735319137573
1660273662415375400,1.831375244140625,-1.6284903287887573,0.4757876694202423,1.3849842548370361
1660273662417375200,1.833375244140625,-1.629101276397705,0.4348596930503845,1.4051427841186523
1660273662419375400,1.835375244140625,-1.6345990896224976,0.35300374031066895,1.4283556938171387
1660273662421374500,1.83737451171875,-1.6969072818756104,0.035964690148830414,1.5383113622665405
1660273662423373600,1.83937353515625,-1.7066811323165894,0.0017562375869601965,1.5517504215240479
1660273662425373000,1.841373046875,-1.7182875871658325,-0.03061962127685547,1.564578652381897
1660273662427372000,1.8433720703125,-1.7182875871658325,-0.03061962127685547,1.564578652381897
1660273662429371000,1.845370849609375,-1.7182875871658325,-0.03061962127685547,1.564578652381897
1660273662431371000,1.84737109375,-1.7182875871658325,-0.03061962127685547,1.564578652381897
1660273662433371000,1.849370849609375,-1.7329483032226562,-0.09048441797494888,1.592678427696228
1660273662435371000,1.85137109375,-1.758604645729065,-0.11858421564102173,1.6061174869537354
1660273662437370400,1.853370361328125,-1.7915914058685303,-0.15706872940063477,1.6323846578598022
1660273662439370800,1.855370849609375,-1.8190803527832031,-0.18883371353149414,1.6610952615737915
1660273662441371000,1.857370849609375,-1.8331302404403687,-0.2016618847846985,1.6727017164230347
1660273662443370800,1.859370849609375,-1.8630626201629639,-0.216322660446167,1.6977472305297852
1660273662445371000,1.861370849609375,-1.8777234554290771,-0.22243130207061768,1.7124079465866089
1660273662447370800,1.863370849609375,-1.9143753051757812,-0.22365303337574005,1.7405078411102295
1660273662449371000,1.865370849609375,-1.948583722114563,-0.21449005603790283,1.763109803199768
1660273662451370800,1.867370849609375,-1.970574975013733,-0.20715968310832977,1.774105429649353
1660273662453371000,1.869370849609375,-2.0096702575683594,-0.18883371353149414,1.8009834289550781
1660273662455370800,1.871370849609375,-2.046933174133301,-0.1607339233160019,1.8266397714614868
1660273662457370600,1.87337060546875,-2.0689241886138916,-0.14362968504428864,1.8388570547103882
1660273662459370500,1.87537060546875,-2.1104631423950195,-0.10758864134550095,1.857793927192688
1660273662461367800,1.877367919921875,-2.1721603870391846,-0.04833471402525902,1.8846720457077026
1660273662463367700,1.87936767578125,-2.1721603870391846,-0.04833471402525902,1.8846720457077026
1660273662465370400,1.881370361328125,-2.2143101692199707,-0.009239336475729942,1.8962783813476562
1660273662467370200,1.883370361328125,-2.254016399383545,0.032299499958753586,1.906663179397583
1660273662469370000,1.8853701171875,-2.273564100265503,0.0518471859395504,1.9097174406051636
1660273662471370500,1.88737060546875,-2.3108267784118652,0.09338602423667908,1.9103283882141113
1660273662473370600,1.88937060546875,-2.349311351776123,0.13125966489315033,1.9084957838058472
1660273662475370500,1.89137060546875,-2.366415500640869,0.15202908217906952,1.9072740077972412
1660273662477370600,1.89337060546875,-2.4067327976226807,0.19173532724380493,1.9023871421813965
1660273662479370500,1.89537060546875,-2.4397194385528564,0.23571762442588806,1.8950567245483398
1660273662481370600,1.89737060546875,-2.4562127590179443,0.25648704171180725,1.8920023441314697
1660273662483370500,1.89937060546875,-2.4904212951660156,0.30169108510017395,1.8816176652908325
1660273662485370600,1.90137060546875,-2.522186279296875,0.34322991967201233,1.8712329864501953
1660273662487370500,1.90337060546875,-2.5356252193450928,0.36705365777015686,1.8626807928085327
1660273662489371100,1.90537109375,-2.561281681060791,0.4098142087459564,1.8504635095596313
1660273662491371300,1.907371337890625,-2.58388352394104,0.4519639313220978,1.83824622631073
1660273662493371100,1.90937109375,-2.5961010456085205,0.4721224904060364,1.8290832042694092
1660273662495371000,1.91137109375,-2.6132051944732666,0.5099961161613464,1.8144224882125854
1660273662497371100,1.91337109375,-2.6272549629211426,0.5417611002922058,1.7973182201385498
1660273662499371000,1.91537109375,-2.634585380554199,0.5588653683662415,1.7857118844985962
1660273662501370400,1.917370361328125,-2.659019947052002,0.6291148662567139,1.7392860651016235
1660273662503369500,1.919369384765625,-2.659019947052002,0.6291148662567139,1.7392860651016235
1660273662505369300,1.921369384765625,-2.659019947052002,0.6291148662567139,1.7392860651016235
1660273662507369200,1.923369140625,-2.665128707885742,0.6504951119422913,1.7197383642196655
1660273662509369300,1.925369384765625,-2.6712374687194824,0.6694319248199463,1.7020232677459717
1660273662511369200,1.927369140625,-2.670626401901245,0.6767623424530029,1.6910277605056763
1660273662513369300,1.929369384765625,-2.6736807823181152,0.6865361928939819,1.6720908880233765
1660273662515369200,1.931369140625,-2.6736807823181152,0.6975317597389221,1.6549866199493408
1660273662517369300,1.933369384765625,-2.672459125518799,0.7005860805511475,1.6446019411087036
1660273662519369200,1.935369140625,-2.673069953918457,0.7073056101799011,1.6268868446350098
1660273662521370000,1.9373701171875,-2.666961193084717,0.7121925354003906,1.6085609197616577
1660273662523370200,1.939370361328125,-2.6694047451019287,0.7140251398086548,1.6006196737289429
1660273662525369000,1.941369140625,-2.661463499069214,0.7158576846122742,1.5871806144714355
1660273662527369200,1.943369140625,-2.655965805053711,0.7158576846122742,1.5749633312225342
1660273662529369000,1.945369140625,-2.652911424636841,0.7140251398086548,1.5700763463974
1660273662531369000,1.947368896484375,-2.6461918354034424,0.7128033638000488,1.564578652381897
1660273662533368800,1.949368896484375,-2.636418104171753,0.7060838937759399,1.5609134435653687
1660273662535369000,1.951368896484375,-2.6290876865386963,0.7036404013633728,1.5590808391571045
1660273662537368800,1.953368896484375,-2.619924783706665,0.6938665509223938,1.5627460479736328
1660273662539369000,1.955368896484375,-2.60587477684021,0.6847035884857178,1.5658003091812134
1660273662541368000,1.9573681640625,-2.541733980178833,0.6285039782524109,1.6171129941940308
1660273662543367200,1.9593671875,-2.541733980178833,0.6285039782524109,1.6171129941940308
1660273662545366300,1.9613662109375,-2.541733980178833,0.6285039782524109,1.6171129941940308
1660273662547365400,1.963365478515625,-2.541733980178833,0.6285039782524109,1.6171129941940308
1660273662549364700,1.96536474609375,-2.5325708389282227,0.6199518442153931,1.627497673034668
1660273662551364900,1.96736474609375,-2.5118014812469482,0.6004042029380798,1.6525431871414185
1660273662553364700,1.96936474609375,-2.500195026397705,0.5887977480888367,1.66781485080719
1660273662555364400,1.9713642578125,-2.4782040119171143,0.5655848383903503,1.7008016109466553
1660273662557364500,1.973364501953125,-2.451936721801758,0.5405393838882446,1.733788251876831
1660273662559364400,1.9753642578125,-2.437886953353882,0.5277112126350403,1.7539467811584473
1660273662561365000,1.977364990234375,-2.414062976837158,0.4953353703022003,1.7912095785140991
1660273662563366000,1.979365966796875,-2.3871850967407227,0.4611268937587738,1.8290832042694092
1660273662565365800,1.98136572265625,-2.3731350898742676,0.44402268528938293,1.8486309051513672
1660273662567366000,1.983365966796875,-2.3456461429595947,0.40248385071754456,1.8889480829238892
1660273662569365800,1.98536572265625,-2.3151028156280518,0.35666894912719727,1.9213238954544067
1660273662571366000,1.987365966796875,-2.299220323562622,0.3340669274330139,1.9420933723449707
1660273662573365500,1.989365478515625,-2.270509719848633,0.28153252601623535,1.9787452220916748
1660273662575365000,1.991365234375,-2.2424099445343018,0.22960896790027618,2.007455825805664
1660273662577365200,1.993365234375,-2.228971004486084,0.20456349849700928,2.027003526687622
1660273662579365000,1.995365234375,-2.2020928859710693,0.1477530300617218,2.054492473602295
1660273662581364200,1.9973642578125,-2.134286880493164,-0.058108557015657425,2.1455113887786865
1660273662583363300,1.99936328125,-2.134286880493164,-0.058108557015657425,2.1455113887786865
1660273662585362400,2.001362548828125,-2.125734806060791,-0.08804095536470413,2.1558961868286133
1660273662587361500,2.003361572265625,-2.125734806060791,-0.08804095536470413,2.1558961868286133
1660273662589361400,2.005361328125,-2.125734806060791,-0.08804095536470413,2.1558961868286133
1660273662591361500,2.007361572265625,-2.112295627593994,-0.1454622894525528,2.174833059310913
1660273662593361400,2.009361328125,-2.1000783443450928,-0.2010510265827179,2.1894936561584473
1660273662595361500,2.011361572265625,-2.0915262699127197,-0.22915083169937134,2.197434902191162
1660273662597361400,2.013361328125,-2.0768654346466064,-0.27863091230392456,2.208430528640747
1660273662599361500,2.015361572265625,-2.064037322998047,-0.3262783885002136,2.21698260307312
1660273662601362400,2.017362548828125,-2.058539628982544,-0.3482695519924164,2.2212586402893066
1660273662603363300,2.01936328125,-2.0402135848999023,-0.3879757821559906,2.221869707107544
1660273662605364200,2.0213642578125,-2.0267744064331055,-0.42523857951164246,2.2182044982910156
1660273662607365000,2.023365234375,-2.0151681900024414,-0.44600799679756165,2.2175936698913574
1660273662609365200,2.025365234375,-1.9962313175201416,-0.47716212272644043,2.2127065658569336
1660273662611365000,2.027365234375,-1.9754618406295776,-0.5052618980407715,2.2041544914245605
1660273662613365000,2.029364990234375,-1.9662988185882568,-0.5156466364860535,2.1956024169921875
1660273662615365000,2.031365234375,-1.9455294609069824,-0.539470374584198,2.182774305343628
1660273662617365200,2.033365234375,-1.921705722808838,-0.5565745830535889,2.1675026416778564
1660273662619365000,2.035365234375,-1.9058232307434082,-0.5632941126823425,2.157728672027588
1660273662621364500,2.037364501953125,-1.7720437049865723,-0.5999460220336914,2.0581576824188232
1660273662623363600,2.039363525390625,-1.7720437049865723,-0.5999460220336914,2.0581576824188232
1660273662625362700,2.04136279296875,-1.7543286085128784,-0.6011677384376526,2.0441079139709473
1660273662627362000,2.043362060546875,-1.7543286085128784,-0.6011677384376526,2.0441079139709473
1660273662629361200,2.045361083984375,-1.7366135120391846,-0.6060546636581421,2.031890630722046
1660273662631360300,2.0473603515625,-1.7366135120391846,-0.6060546636581421,2.031890630722046
1660273662633360600,2.049360595703125,-1.714011549949646,-0.6066655516624451,2.0172297954559326
1660273662635361300,2.051361328125,-1.6724727153778076,-0.6109415888786316,1.993406057357788
1660273662637361400,2.053361328125,-1.6474272012710571,-0.6097198724746704,1.9799669981002808
1660273662639361300,2.055361328125,-1.5961145162582397,-0.6115524768829346,1.9555323123931885
1660273662641360400,2.0573603515625,-1.541136622428894,-0.6158285140991211,1.9310977458953857
1660273662643360500,2.059360595703125,-1.5136476755142212,-0.6158285140991211,1.9170478582382202
1660273662645360400,2.0613603515625,-1.4482851028442383,-0.6164394021034241,1.8938349485397339
1660273662647358000,2.06335791015625,-1.381700873374939,-0.6194937229156494,1.8706220388412476
1660273662649358000,2.065358154296875,-1.3487141132354736,-0.6188828349113464,1.8614591360092163
1660273662651358000,2.06735791015625,-1.2766319513320923,-0.6176611185073853,1.8406896591186523
1660273662653358000,2.069358154296875,-1.2045499086380005,-0.6164394021034241,1.821752905845642
1660273662655358000,2.07135791015625,-1.1666762828826904,-0.6164394021034241,1.810146450996399
1660273662657358000,2.073358154296875,-1.0878746509552002,-0.6152176856994629,1.7973182201385498
1660273662659358000,2.07535791015625,-1.0096838474273682,-0.6121633052825928,1.7759380340576172
1660273662661355500,2.07735546875,-0.9290496706962585,-0.6109415888786316,1.7576119899749756
1660273662663354400,2.079354248046875,-0.8905651569366455,-0.6164394021034241,1.7508925199508667
1660273662665354200,2.081354248046875,-0.8099309802055359,-0.6225480437278748,1.7289013862609863
1660273662667354400,2.083354248046875,-0.7671703696250916,-0.6274349689483643,1.7209601402282715
1660273662669354200,2.085354248046875,-0.6840927004814148,-0.643317461013794,1.6977472305297852
1660273662671354400,2.087354248046875,-0.5985715985298157,-0.662254273891449,1.6745343208312988
1660273662673354200,2.089354248046875,-0.5600870847702026,-0.6732498407363892,1.6617062091827393
1660273662675354400,2.091354248046875,-0.4770093858242035,-0.6982953548431396,1.6311628818511963
1660273662677354500,2.0933544921875,-0.39332085847854614,-0.729449450969696,1.5945110321044922
1660273662679354600,2.095354736328125,-0.3548363447189331,-0.7422776222229004,1.5786285400390625
1660273662681354500,2.0973544921875,-0.2790890634059906,-0.7685448527336121,1.5364787578582764
1660273662683354600,2.099354736328125,-0.20578522980213165,-0.7966446280479431,1.4918856620788574
1660273662685354800,2.101354736328125,-0.1727984994649887,-0.8106945157051086,1.468061923980713
1660273662687354600,2.103354736328125,-0.11171197891235352,-0.8271878957748413,1.417970895767212
1660273662689354800,2.105354736328125,-0.05367978289723396,-0.8449029922485352,1.3593279123306274
1660273662691355400,2.10735546875,-0.026190847158432007,-0.8516225218772888,1.3312281370162964
1660273662693355300,2.109355224609375,0.022067507728934288,-0.8613963723182678,1.2670872211456299
1660273662695355400,2.11135546875,0.06604980677366257,-0.8638398051261902,1.1980594396591187
1660273662697355300,2.113355224609375,0.08743008971214294,-0.8662832975387573,1.1620184183120728
1660273662699355400,2.11535546875,0.12652546167373657,-0.862618088722229,1.0856602191925049
1660273662701354500,2.1173544921875,0.1912771761417389,-0.8455138802528381,0.917061448097229
1660273662703353600,2.119353515625,0.1912771761417389,-0.8455138802528381,0.917061448097229
1660273662705353500,2.121353515625,0.206548810005188,-0.8412377834320068,0.8730791807174683
1660273662707353900,2.123353759765625,0.22976168990135193,-0.823522686958313,0.7814493775367737
1660273662709353700,2.125353759765625,0.24258986115455627,-0.8113054037094116,0.7313584089279175
1660273662711353900,2.127353759765625,0.26458099484443665,-0.7838164567947388,0.6360634565353394
1660273662713353700,2.129353759765625,0.2865721583366394,-0.7557166814804077,0.5316054821014404
1660273662715353900,2.131353759765625,0.2963460087776184,-0.7373906970024109,0.4815145432949066
1660273662717353700,2.133353759765625,0.32078060507774353,-0.6958518624305725,0.3764457106590271
1660273662719353900,2.135353759765625,0.34521523118019104,-0.6512587070465088,0.26893341541290283
1660273662721354800,2.137354736328125,0.36048686504364014,-0.6243806481361389,0.21823160350322723
1660273662723355100,2.139355224609375,0.39103010296821594,-0.5700136423110962,0.11010845750570297
1660273662725355300,2.141355224609375,0.4227951169013977,-0.5083162188529968,0.00015271631127689034
1660273662727355100,2.143355224609375,0.4386776089668274,-0.47716212272644043,-0.05115996301174164
1660273662729355300,2.145355224609375,0.4741078019142151,-0.4130212664604187,-0.15683965384960175
1660273662731355400,2.14735546875,0.5077053904533386,-0.3427717685699463,-0.2612976133823395
1660273662733355300,2.149355224609375,0.5254204869270325,-0.3061198592185974,-0.3113885521888733
1660273662735355400,2.15135546875,0.5620723962783813,-0.23220515251159668,-0.4103487432003021
1660273662737355300,2.153355224609375,0.5981134176254272,-0.15829046070575714,-0.5068654417991638
1660273662739355100,2.155355224609375,0.6170502305030823,-0.11919508129358292,-0.5520694851875305
1660273662741354200,2.157354248046875,0.7813730239868164,0.12331841886043549,-0.8391761183738708
1660273662743353300,2.159353271484375,0.7813730239868164,0.12331841886043549,-0.8391761183738708
1660273662745352400,2.1613525390625,0.7813730239868164,0.12331841886043549,-0.8391761183738708
1660273662747351600,2.1633515625,0.8100836873054504,0.1532508134841919,-0.8758280277252197
1660273662749351700,2.1653515625,0.8400160670280457,0.1825723499059677,-0.9149234294891357
1660273662751351000,2.16735107421875,0.8681158423423767,0.208839550614357,-0.9503536224365234
1660273662753351200,2.16935107421875,0.9340893030166626,0.25587618350982666,-1.018770456314087
1660273662755351300,2.171351318359375,0.9988410472869873,0.29802587628364563,-1.08718740940094
1660273662757351200,2.17335107421875,1.033049464225769,0.3139083683490753,-1.1189523935317993
1660273662759351300,2.175351318359375,1.1063532829284668,0.3456733822822571,-1.180649757385254
1660273662761352200,2.177352294921875,1.1784354448318481,0.36766451597213745,-1.2429580688476562
1660273662763353000,2.17935302734375,1.2150872945785522,0.37866008281707764,-1.2741122245788574
1660273662765353200,2.181353271484375,1.2865585088729858,0.39332085847854614,-1.3333661556243896
1660273662767353000,2.18335302734375,1.3616949319839478,0.40798163414001465,-1.3920091390609741
1660273662769353200,2.185353271484375,1.3977360725402832,0.4104250967502594,-1.4201090335845947
1660273662771353000,2.18735302734375,1.4685964584350586,0.41897720098495483,-1.4763085842132568
1660273662773353000,2.18935302734375,1.5400676727294922,0.42325326800346375,-1.5288430452346802
1660273662775353000,2.19135302734375,1.5767195224761963,0.4256967306137085,-1.5544993877410889
1660273662777353000,2.19335302734375,1.6457473039627075,0.42325326800346375,-1.6064229011535645
1660273662779353000,2.19535302734375,1.7178294658660889,0.41836634278297424,-1.6559029817581177
1660273662781352200,2.197352294921875,1.9780579805374146,0.3554472029209137,-1.8067866563796997
1660273662783351300,2.199351318359375,1.9780579805374146,0.3554472029209137,-1.8067866563796997
1660273662785350400,2.201350341796875,1.9780579805374146,0.3554472029209137,-1.8067866563796997
1660273662787349500,2.203349609375,1.9780579805374146,0.3554472029209137,-1.8067866563796997
1660273662789349400,2.205349365234375,2.014709949493408,0.3438407778739929,-1.826945185661316
1660273662791349200,2.207349365234375,2.0965659618377686,0.31085404753685,-1.8642079830169678
1660273662793349400,2.209349365234375,2.1362721920013428,0.2943606972694397,-1.8807014226913452
1660273662795349200,2.211349365234375,2.2138519287109375,0.25526532530784607,-1.9155206680297852
1660273662797349400,2.213349365234375,2.2914319038391113,0.21739166975021362,-1.944231390953064
1660273662799349200,2.215349365234375,2.3280837535858154,0.19967657327651978,-1.9601138830184937
1660273662801350100,2.21735009765625,2.4013876914978027,0.1575268805027008,-1.982105016708374
1660273662803351000,2.21935107421875,2.463696002960205,0.11659890413284302,-2.0034852027893066
1660273662805352000,2.22135205078125,2.491795778274536,0.09766208380460739,-2.007150411605835
1660273662807352800,2.223352783203125,2.5431084632873535,0.06345362961292267,-2.015702486038208
1660273662809353000,2.22535302734375,2.5858688354492188,0.03413209691643715,-2.01814603805542
1660273662811352000,2.22735205078125,2.602973222732544,0.020082194358110428,-2.015702486038208
1660273662813352000,2.22935205078125,2.6292402744293213,-0.0037415495608001947,-2.007150411605835
1660273662815351600,2.2313515625,2.6524531841278076,-0.023900102823972702,-1.9894354343414307
1660273662817351400,2.233351318359375,2.6628379821777344,-0.03000875562429428,-1.980883240699768
1660273662819351600,2.2353515625,2.6738336086273193,-0.04589125141501427,-1.9607247114181519
1660273662821350700,2.2373505859375,2.717205047607422,-0.10025826096534729,-1.8959729671478271
1660273662823349800,2.239349853515625,2.722702741622925,-0.10819950699806213,-1.8923077583312988
1660273662825348900,2.241348876953125,2.7282004356384277,-0.11614075303077698,-1.8935295343399048
1660273662827348000,2.243347900390625,2.7282004356384277,-0.11614075303077698,-1.8935295343399048
1660273662829347000,2.24534716796875,2.7282004356384277,-0.11614075303077698,-1.8935295343399048
1660273662831346400,2.247346435546875,2.7282004356384277,-0.11614075303077698,-1.8935295343399048
1660273662833346300,2.24934619140625,2.7410287857055664,-0.12652546167373657,-1.9008599519729614
1660273662835346200,2.25134619140625,2.7489700317382812,-0.12835806608200073,-1.9075794219970703
1660273662837346300,2.25334619140625,2.7666850090026855,-0.13752104341983795,-1.9301815032958984
1660273662839346200,2.25534619140625,2.7868435382843018,-0.13935363292694092,-1.96133553981781
1660273662841346300,2.25734619140625,2.799060821533203,-0.13691017031669617,-1.980883240699768
1660273662843346200,2.25934619140625,2.820441246032715,-0.13202324509620667,-2.0303633213043213
1660273662845345800,2.261345703125,2.846708297729492,-0.11797334998846054,-2.0871739387512207
1660273662847345400,2.263345458984375,2.857703924179077,-0.11186470091342926,-2.121382236480713
1660273662849345300,2.26534521484375,2.8839712142944336,-0.09659306704998016,-2.19163179397583
1660273662851345000,2.267344970703125,2.9065732955932617,-0.08009970188140869,-2.2740986347198486
1660273662853344800,2.2693447265625,2.9206230640411377,-0.07154759019613266,-2.3156373500823975
1660273662855344600,2.2713447265625,2.9444468021392822,-0.05871942266821861,-2.4054346084594727
1660273662857346600,2.2733466796875,2.9707140922546387,-0.04283692687749863,-2.501340389251709
1660273662859346400,2.275346435546875,2.982320547103882,-0.03611740842461586,-2.5495989322662354
1660273662861343700,2.27734375,3.0232484340667725,-0.009239336475729942,-2.6949846744537354
1660273662863343600,2.279343505859375,3.0366873741149902,0.0005345070967450738,-2.741410493850708
1660273662865342500,2.281342529296875,3.0537917613983154,0.011530081741511822,-2.788447141647339
1660273662867342600,2.283342529296875,3.0794479846954346,0.03474296256899834,-2.880687713623047
1660273662869342500,2.285342529296875,3.106326103210449,0.06101016700267792,-2.96804141998291
1660273662871342300,2.28734228515625,3.1179325580596924,0.07628180086612701,-3.009580373764038
1660273662873342200,2.28934228515625,3.141756296157837,0.1074359267950058,-3.0865492820739746
1660273662875342300,2.29134228515625,3.1661908626556396,0.14103351533412933,-3.151911973953247
1660273662877341400,2.293341552734375,3.1747429370880127,0.15447254478931427,-3.1836769580841064
1660273662879341600,2.295341552734375,3.2016210556030273,0.18684840202331543,-3.2343788146972656
1660273662881341400,2.297341552734375,3.2266666889190674,0.2241111844778061,-3.2789719104766846
1660273662883341600,2.299341552734375,3.2376620769500732,0.23999367654323578,-3.293632745742798
1660273662885341400,2.301341552734375,3.2608749866485596,0.26626089215278625,-3.3211216926574707
1660273662887341600,2.303341552734375,3.2828662395477295,0.2906954884529114,-3.3406693935394287
1660273662889342700,2.3053427734375,3.2908074855804443,0.3004693388938904,-3.3486106395721436
1660273662891342300,2.30734228515625,3.304246425628662,0.31696268916130066,-3.350443124771118
1660273662893342200,2.30934228515625,3.3140203952789307,0.3242930769920349,-3.3479998111724854
1660273662895341800,2.311341796875,3.312187671661377,0.32307136058807373,-3.3400583267211914
1660273662897342000,2.313342041015625,3.3054680824279785,0.3151301145553589,-3.319899797439575
1660273662899341800,2.315341796875,3.2914183139801025,0.2992476224899292,-3.291800022125244
1660273662901341000,2.3173408203125,3.2547664642333984,0.2583196461200714,-3.2288808822631836
1660273662903340000,2.319340087890625,3.2547664642333984,0.2583196461200714,-3.2288808822631836
1660273662905340200,2.321340087890625,3.223001480102539,0.22288945317268372,-3.176957368850708
1660273662907340000,2.323340087890625,3.200399398803711,0.2033417671918869,-3.1500792503356934
1660273662909339400,2.32533935546875,3.1490867137908936,0.15935947000980377,-3.084716796875
1660273662911339300,2.32733935546875,3.088611125946045,0.11293371021747589,-3.0187432765960693
1660273662913339400,2.32933935546875,3.055013418197632,0.08605564385652542,-2.981480598449707
1660273662915339000,2.331339111328125,2.982320547103882,0.029245173558592796,-2.902678966522217
1660273662917338400,2.33333837890625,2.898632049560547,-0.03550654277205467,-2.8153252601623535
1660273662919338500,2.33533837890625,2.850984573364258,-0.06910412758588791,-2.7707319259643555
1660273662921339400,2.33733935546875,2.7556893825531006,-0.13629931211471558,-2.674215316772461
1660273662923339500,2.339339599609375,2.7098746299743652,-0.206548810005188,-2.621070146560669
1660273662925340000,2.34133984375,2.6048057079315186,-0.2419789880514145,-2.517833709716797
1660273662927339800,2.34333984375,2.494849920272827,-0.3128393590450287,-2.4042129516601562
1660273662929340000,2.34533984375,2.438650369644165,-0.3482695519924164,-2.344348192214966
1660273662931339800,2.34733984375,2.323807716369629,-0.4142429828643799,-2.2288944721221924
1660273662933340000,2.34933984375,2.2046890258789062,-0.4783838391304016,-2.110386610031128
1660273662935339800,2.35133984375,2.1442134380340576,-0.5089271068572998,-2.0511326789855957
1660273662937340200,2.353340087890625,2.016542434692383,-0.5596289038658142,-1.933235764503479
1660273662939340300,2.35534033203125,1.890093445777893,-0.607276439666748,-1.8177822828292847
1660273662941339400,2.35733935546875,1.4569900035858154,-0.7453319430351257,-1.4561500549316406
1660273662943338200,2.359338134765625,1.4569900035858154,-0.7453319430351257,-1.4561500549316406
1660273662945337300,2.36133740234375,1.4569900035858154,-0.7453319430351257,-1.4561500549316406
1660273662947336400,2.36333642578125,1.4569900035858154,-0.7453319430351257,-1.4561500549316406
1660273662949335600,2.36533544921875,1.4014012813568115,-0.7612144351005554,-1.4146112203598022
1660273662951336000,2.3673359375,1.2969433069229126,-0.7935903072357178,-1.3303117752075195
1660273662953335800,2.369335693359375,1.2492958307266235,-0.8076401948928833,-1.2936599254608154
1660273662955336200,2.371336181640625,1.1594985723495483,-0.8290205001831055,-1.22279953956604
1660273662957336300,2.37333642578125,1.0782535076141357,-0.8467355966567993,-1.1623238325119019
1660273662959336200,2.375336181640625,1.0409907102584839,-0.8491790294647217,-1.136056661605835
1660273662961337600,2.377337646484375,0.9689086079597473,-0.8552877306938171,-1.0920743942260742
1660273662963338500,2.37933837890625,0.9133198857307434,-0.8485682010650635,-1.0493137836456299
1660273662965338400,2.38133837890625,0.881554901599884,-0.8442921042442322,-1.0322095155715942
1660273662967338500,2.38333837890625,0.8271878957748413,-0.8284096121788025,-1.0053315162658691
1660273662969339400,2.38533935546875,0.7801512479782104,-0.8027532696723938,-0.9821186065673828
1660273662971339000,2.387339111328125,0.7606036067008972,-0.7673230767250061,-0.9729556441307068
1660273662973339000,2.3893388671875,0.7215082049369812,-0.7465536594390869,-0.9576839804649353
1660273662975339300,2.39133935546875,0.6927975416183472,-0.700738787651062,-0.9497427344322205
1660273662977339100,2.393339111328125,0.6781367659568787,-0.6756933331489563,-0.9442449808120728
1660273662979339300,2.39533935546875,0.6567565202713013,-0.6243806481361389,-0.9411906003952026
1660273662981338400,2.39733837890625,0.6164394021034241,-0.3824779987335205,-0.9570731520652771
1660273662983337500,2.39933740234375,0.6164394021034241,-0.3824779987335205,-0.9570731520652771
1660273662985336600,2.401336669921875,0.6127741932868958,-0.348880410194397,-0.9625709056854248
1660273662987335700,2.403335693359375,0.6115524768829346,-0.3177262842655182,-0.9680687189102173
1660273662989335000,2.4053349609375,0.6115524768829346,-0.3177262842655182,-0.9680687189102173
1660273662991334400,2.40733447265625,0.6115524768829346,-0.3177262842655182,-0.9680687189102173
1660273662993334500,2.40933447265625,0.6078872680664062,-0.24564418196678162,-0.9784533977508545
1660273662995334700,2.411334716796875,0.6054438352584839,-0.20838139951229095,-0.983951210975647
1660273662997333800,2.413333740234375,0.597502589225769,-0.1405753642320633,-0.9967793822288513
1660273662999334000,2.415333984375,0.5913938879966736,-0.07093672454357147,-1.0059423446655273
1660273663001334800,2.417334716796875,0.5895613431930542,-0.03306308016180992,-1.0138835906982422
1660273663003335700,2.419335693359375,0.5828418135643005,0.04024074971675873,-1.0248792171478271
1660273663005336600,2.421336669921875,0.567570149898529,0.11110111325979233,-1.0364855527877808
1660273663007337500,2.42333740234375,0.5651267170906067,0.1477530300617218,-1.0395399332046509
1660273663009337300,2.42533740234375,0.5541311502456665,0.21189388632774353,-1.049924612045288
1660273663011337500,2.42733740234375,0.5455790162086487,0.27664560079574585,-1.0548115968704224
1660273663013337000,2.429337158203125,0.538859486579895,0.3053562641143799,-1.0590876340866089
1660273663015337000,2.4313369140625,0.5333617329597473,0.3603341281414032,-1.0621418952941895
1660273663017336800,2.4333369140625,0.5260313153266907,0.4098142087459564,-1.0639744997024536
1660273663019337000,2.4353369140625,0.5260313153266907,0.42936190962791443,-1.0658071041107178
1660273663021335600,2.43733544921875,0.5382486581802368,0.5325981378555298,-1.0358747243881226
1660273663023334700,2.439334716796875,0.5382486581802368,0.5325981378555298,-1.0358747243881226
1660273663025333800,2.441333740234375,0.5406920909881592,0.5313764214515686,-1.0297660827636719
1660273663027332900,2.443332763671875,0.5406920909881592,0.5313764214515686,-1.0297660827636719
1660273663029332200,2.445332275390625,0.5413029789924622,0.5307655334472656,-1.020603060722351
1660273663031331800,2.447331787109375,0.5413029789924622,0.5307655334472656,-1.020603060722351
1660273663033332000,2.44933203125,0.5461899042129517,0.5283221006393433,-1.0126618146896362
1660273663035331800,2.451331787109375,0.5516876578330994,0.5173265337944031,-0.9900598526000977
1660273663037332000,2.45333203125,0.5553528666496277,0.5063309073448181,-0.9796751141548157
1660273663039331800,2.455331787109375,0.5620723962783813,0.4861723780632019,-0.9527970552444458
1660273663041332000,2.45733203125,0.5669593214988708,0.4605160355567932,-0.9216429591178894
1660273663043331800,2.459331787109375,0.5694027543067932,0.4446335434913635,-0.9014843702316284
1660273663045332000,2.46133203125,0.5742896795272827,0.4098142087459564,-0.8684976696968079
1660273663047331800,2.463331787109375,0.5761222839355469,0.3743840456008911,-0.8263479471206665
1660273663049331700,2.465331787109375,0.5749005675315857,0.35239288210868835,-0.8055785298347473
1660273663051331600,2.46733154296875,0.5791766047477722,0.30718886852264404,-0.7591527700424194
1660273663053331500,2.46933154296875,0.5785657167434692,0.25648704171180725,-0.708450973033905
1660273663055329500,2.47132958984375,0.577954888343811,0.22960896790027618,-0.6852380633354187
1660273663057329400,2.473329345703125,0.5785657167434692,0.16913332045078278,-0.6290385127067566
1660273663059329300,2.475329345703125,0.5810092091560364,0.10499246418476105,-0.5716171264648438
1660273663061326600,2.47732666015625,0.5816200971603394,0.03718642145395279,-0.5141957998275757
1660273663063326500,2.479326416015625,0.5797874927520752,-0.00007635815563844517,-0.4836525619029999
1660273663065326300,2.481326416015625,0.5822309255599976,-0.07582364976406097,-0.4225660264492035
1660273663067326200,2.483326171875,0.5822309255599976,-0.11552988737821579,-0.3920227587223053
1660273663069327400,2.485327392578125,0.5846744179725647,-0.19310978055000305,-0.32788193225860596
1660273663071327200,2.4873271484375,0.5785657167434692,-0.2670244574546814,-0.2643519341945648
1660273663073327400,2.489327392578125,0.5761222839355469,-0.30489811301231384,-0.23075434565544128
1660273663075327200,2.4913271484375,0.567570149898529,-0.377591073513031,-0.16783522069454193
1660273663077327000,2.4933271484375,0.559018075466156,-0.44661885499954224,-0.10613783448934555
1660273663079327200,2.4953271484375,0.549244225025177,-0.4789946973323822,-0.07742717117071152
1660273663081327000,2.4973271484375,0.530307412147522,-0.5406920909881592,-0.013897184282541275
1660273663083327200,2.4993271484375,0.5150357484817505,-0.5981134176254272,0.04535674303770065
1660273663085327000,2.5013271484375,0.5034292936325073,-0.6274349689483643,0.0734565481543541
1660273663087327200,2.5033271484375,0.4844925105571747,-0.6805802583694458,0.13148874044418335
1660273663089327000,2.5053271484375,0.4625013470649719,-0.7312820553779602,0.18585574626922607
1660273663091327200,2.5073271484375,0.45150578022003174,-0.7532731890678406,0.2145664244890213
1660273663093327000,2.5093271484375,0.43195807933807373,-0.7972555160522461,0.26771169900894165
1660273663095327200,2.5113271484375,0.4136321246623993,-0.833907425403595,0.3208569586277008
1660273663097327000,2.5133271484375,0.4038582742214203,-0.8510116338729858,0.34345898032188416
1660273663099327000,2.515326904296875,0.39103010296821594,-0.8882744312286377,0.3923282027244568
1660273663101326000,2.517326171875,0.36476290225982666,-0.9499717950820923,0.47907108068466187
1660273663103325200,2.5193251953125,0.36476290225982666,-0.9499717950820923,0.47907108068466187
1660273663105325300,2.5213251953125,0.3574325144290924,-0.9609673619270325,0.4992296099662781
1660273663107325200,2.5233251953125,0.34949126839637756,-0.9933432340621948,0.5377141237258911
1660273663109325300,2.5253251953125,0.3470478057861328,-1.0043388605117798,0.5535966157913208
1660273663111325200,2.5273251953125,0.3421608805656433,-1.0269408226013184,0.584139883518219
1660273663113325300,2.5293251953125,0.34460434317588806,-1.052597165107727,0.6097962260246277
1660273663115325700,2.53132568359375,0.3470478057861328,-1.0617601871490479,0.6201809644699097
1660273663117325800,2.533325927734375,0.35437819361686707,-1.0794752836227417,0.6403394937515259
1660273663119325700,2.53532568359375,0.3610977232456207,-1.090470790863037,0.6537785530090332
1660273663121326800,2.537326904296875,0.37026068568229675,-1.0965794324874878,0.6568328738212585
1660273663123327000,2.539326904296875,0.3824779987335205,-1.1026880741119385,0.6635523438453674
1660273663125326800,2.541326904296875,0.3977496325969696,-1.1045206785202026,0.6672175526618958
1660273663127327000,2.543326904296875,0.40630173683166504,-1.1063532829284668,0.6678284406661987
1660273663129326300,2.545326416015625,0.4227951169013977,-1.1020772457122803,0.6653849482536316
