time,seconds_elapsed,z,y,x
1660273660743360500,0.159360595703125,0.02687807008624077,-0.1563815027475357,0.14416420459747314
1660273660745386500,0.161386474609375,0.03481931984424591,-0.1319468915462494,0.1722639948129654
1660273660747385600,0.163385498046875,0.05314527451992035,-0.08246681094169617,0.22418753802776337
1660273660749385200,0.16538525390625,0.06780604273080826,-0.03726277872920036,0.28527405858039856
1660273660751384800,0.167384765625,0.0757472887635231,-0.01771509274840355,0.31520646810531616
1660273660753384400,0.169384521484375,0.0910189226269722,0.019547687843441963,0.3781255781650543
1660273660755384300,0.17138427734375,0.10567969083786011,0.04886921867728233,0.44165557622909546
1660273660757384200,0.17338427734375,0.11423180252313614,0.05803219974040985,0.475253164768219
1660273660759384000,0.175384033203125,0.1270599663257599,0.07452555745840073,0.5461135506629944
1660273660761384000,0.177384033203125,0.1362229436635971,0.07757988572120667,0.6151412725448608
1660273660763383800,0.1793837890625,0.14049901068210602,0.07330382615327835,0.6499606370925903
1660273660765383700,0.1813837890625,0.14538592100143433,0.05803219974040985,0.7189884185791016
1660273660767383600,0.183383544921875,0.14538592100143433,0.027488935738801956,0.7819074988365173
1660273660769383400,0.185383544921875,0.14416420459747314,0.00733038317412138,0.817337691783905
1660273660771383600,0.187383544921875,0.14355333149433136,-0.04642575979232788,0.8765916228294373
1660273660773383400,0.189383544921875,0.1368338167667389,-0.12034045159816742,0.9327912330627441
1660273660775383300,0.19138330078125,0.1319468915462494,-0.1612684279680252,0.9572258591651917
1660273660777381600,0.193381591796875,0.07880161702632904,-0.5845980644226074,1.0848966836929321
1660273660779380000,0.1953798828125,0.07880161702632904,-0.5845980644226074,1.0848966836929321
1660273660781378600,0.197378662109375,0.06963863968849182,-0.6591235995292664,1.0922271013259888
1660273660783377200,0.199377197265625,0.06963863968849182,-0.6591235995292664,1.0922271013259888
1660273660785377300,0.201377197265625,0.05864306539297104,-0.7379252314567566,1.0983357429504395
1660273660787376600,0.203376708984375,0.04703662544488907,-0.8203920125961304,1.1020009517669678
1660273660789376800,0.205376708984375,0.024434609338641167,-0.9914342761039734,1.10139000415802
1660273660791376600,0.207376708984375,0.003054326167330146,-1.1722503900527954,1.0897835493087769
1660273660793376800,0.209376708984375,-0.010995574295520782,-1.2657127380371094,1.0812314748764038
1660273660795376600,0.211376708984375,-0.036041051149368286,-1.4483615159988403,1.0561859607696533
1660273660797376500,0.21337646484375,-0.06169738993048668,-1.6255123615264893,1.018923282623291
1660273660799376600,0.215376708984375,-0.07330382615327835,-1.7104226350784302,0.9993755221366882
1660273660801376500,0.21737646484375,-0.1007927656173706,-1.8735237121582031,0.9486737251281738
1660273660803376400,0.21937646484375,-0.12400564551353455,-2.0176877975463867,0.8949176073074341
1660273660805376500,0.22137646484375,-0.14049901068210602,-2.0812180042266846,0.8619308471679688
1660273660807376400,0.22337646484375,-0.16249015927314758,-2.1923954486846924,0.7965682744979858
1660273660809376500,0.22537646484375,-0.18448130786418915,-2.280970811843872,0.7220427393913269
1660273660811376600,0.227376708984375,-0.19486601650714874,-2.3133466243743896,0.6835582256317139
1660273660813376500,0.22937646484375,-0.2119702398777008,-2.359161615371704,0.6023131608963013
1660273660815376600,0.231376708984375,-0.2217440903186798,-2.3817636966705322,0.5204572081565857
1660273660817375700,0.233375732421875,-0.25534167885780334,-2.2040019035339355,0.21013765037059784
1660273660819374800,0.235374755859375,-0.2565633952617645,-2.14902400970459,0.17776179313659668
1660273660821374200,0.237374267578125,-0.2626720666885376,-2.0897700786590576,0.15271630883216858
1660273660823373300,0.239373291015625,-0.2626720666885376,-2.0897700786590576,0.15271630883216858
1660273660825372400,0.241372314453125,-0.2626720666885376,-2.0897700786590576,0.15271630883216858
1660273660827371500,0.24337158203125,-0.2626720666885376,-2.0897700786590576,0.15271630883216858
1660273660829372000,0.245371826171875,-0.26572638750076294,-2.0201313495635986,0.12950342893600464
1660273660831371800,0.247371826171875,-0.27550023794174194,-1.8735237121582031,0.08918632566928864
1660273660833372000,0.249371826171875,-0.2816088795661926,-1.7061465978622437,0.06352998316287994
1660273660835372000,0.2513720703125,-0.28649580478668213,-1.6175711154937744,0.05253441259264946
1660273660837368800,0.253368896484375,-0.29077184200286865,-1.4391984939575195,0.04886921867728233
1660273660839369000,0.255368896484375,-0.29993483424186707,-1.2565498352050781,0.051312681287527084
1660273660841368800,0.257368896484375,-0.30054569244384766,-1.1691961288452148,0.05314527451992035
1660273660843369000,0.259368896484375,-0.30604347586631775,-0.9957103729248047,0.06780604273080826
1660273660845368800,0.261368896484375,-0.31520646810531616,-0.837496280670166,0.08979719132184982
1660273660847368400,0.263368408203125,-0.32131510972976685,-0.7660250067710876,0.10323622822761536
1660273660849368600,0.26536865234375,-0.32986724376678467,-0.6261368989944458,0.12950342893600464
1660273660851368400,0.267368408203125,-0.3390302062034607,-0.4960225820541382,0.15821409225463867
1660273660853368600,0.26936865234375,-0.3439171314239502,-0.44165557622909546,0.1716531366109848
1660273660855368400,0.271368408203125,-0.35735616087913513,-0.3378084897994995,0.20097467303276062
1660273660857366000,0.273365966796875,-0.37140607833862305,-0.24923302233219147,0.22418753802776337
1660273660859366000,0.275365966796875,-0.3781255781650543,-0.21441370248794556,0.24190263450145721
1660273660861365800,0.27736572265625,-0.3897320330142975,-0.1514945775270462,0.2626720666885376
1660273660863366000,0.279365966796875,-0.3995058834552765,-0.10567969083786011,0.27977627515792847
1660273660865366000,0.281365966796875,-0.40256020426750183,-0.0861319974064827,0.2889392673969269
1660273660867366100,0.2833662109375,-0.4086688458919525,-0.05864306539297104,0.303600013256073
1660273660869366000,0.285365966796875,-0.41172316670417786,-0.04581489413976669,0.31154128909111023
1660273660871366100,0.2873662109375,-0.4092797040939331,-0.0403171069920063,0.313373863697052
1660273660873366300,0.2893662109375,-0.4050036668777466,-0.0403171069920063,0.3170390725135803
1660273660875366100,0.2913662109375,-0.39767327904701233,-0.04459316283464432,0.31642818450927734
1660273660877366300,0.2933662109375,-0.39156460762023926,-0.0507018156349659,0.313373863697052
1660273660879366100,0.2953662109375,-0.3781255781650543,-0.07147123664617538,0.31031954288482666
1660273660881366300,0.2973662109375,-0.35674530267715454,-0.10201449692249298,0.3023782968521118
1660273660883366100,0.2993662109375,-0.3445279896259308,-0.12095131725072861,0.2968805134296417
1660273660885366300,0.3013662109375,-0.32131510972976685,-0.16859880089759827,0.2834414839744568
1660273660887366100,0.3033662109375,-0.29504790902137756,-0.2272418737411499,0.2687807083129883
1660273660889366300,0.3053662109375,-0.27977627515792847,-0.2620611786842346,0.26083946228027344
1660273660891366400,0.307366455078125,-0.24556782841682434,-0.33719760179519653,0.242513507604599
1660273660893366300,0.3093662109375,-0.21380282938480377,-0.42088615894317627,0.2217440903186798
1660273660895366400,0.311366455078125,-0.19608774781227112,-0.4660901725292206,0.2076941877603531
1660273660897365500,0.313365478515625,-0.12950342893600464,-0.6499606370925903,0.16859880089759827
1660273660899364900,0.31536474609375,-0.12950342893600464,-0.6499606370925903,0.16859880089759827
1660273660901365200,0.317365234375,-0.1160643994808197,-0.6994407176971436,0.15882496535778046
1660273660903365000,0.319365234375,-0.08246681094169617,-0.7898487448692322,0.13927727937698364
1660273660905364200,0.3213642578125,-0.05253441259264946,-0.8790351152420044,0.12034045159816742
1660273660907364400,0.3233642578125,-0.036651913076639175,-0.9236282706260681,0.11545353382825851
1660273660909364200,0.3253642578125,-0.00733038317412138,-1.0109820365905762,0.1014036312699318
1660273660911364400,0.3273642578125,0.02015855349600315,-1.0952813625335693,0.08979719132184982
1660273660913364200,0.3293642578125,0.03176499158143997,-1.1349875926971436,0.08429940044879913
1660273660915364400,0.3313642578125,0.059864792972803116,-1.2137892246246338,0.07452555745840073
1660273660917365000,0.333364990234375,0.0861319974064827,-1.2883148193359375,0.06536258012056351
1660273660919365000,0.335365234375,0.09834930300712585,-1.3170254230499268,0.06169738993048668
1660273660921365200,0.337365234375,0.12034045159816742,-1.3750576972961426,0.05619960278272629
1660273660923365000,0.339365234375,0.14049901068210602,-1.4227051734924316,0.04703662544488907
1660273660925365000,0.341364990234375,0.1508837193250656,-1.4410310983657837,0.04398229718208313
1660273660927365000,0.343365234375,0.17043140530586243,-1.4734070301055908,0.0354301854968071
1660273660929365000,0.345364990234375,0.18936823308467865,-1.492343783378601,0.029932396486401558
1660273660931365000,0.347365234375,0.1973094791173935,-1.4978415966033936,0.025045474991202354
1660273660933365000,0.349364990234375,0.21502456068992615,-1.4953981637954712,0.016493361443281174
1660273660935365000,0.351365234375,0.23151792585849762,-1.4856243133544922,0.006108652334660292
1660273660937364200,0.3533642578125,0.2828305959701538,-1.4013248682022095,-0.03481931984424591
1660273660939363300,0.35536328125,0.29016098380088806,-1.378722906112671,-0.042760565876960754
1660273660941362400,0.357362548828125,0.29016098380088806,-1.378722906112671,-0.042760565876960754
1660273660943361800,0.35936181640625,0.29016098380088806,-1.378722906112671,-0.042760565876960754
1660273660945361700,0.361361572265625,0.2938261926174164,-1.359786033630371,-0.048258353024721146
1660273660947361800,0.36336181640625,0.30054569244384766,-1.3164145946502686,-0.06658431142568588
1660273660949361700,0.365361572265625,0.3066543638706207,-1.2932016849517822,-0.07391469180583954
1660273660951361800,0.36736181640625,0.3072652220726013,-1.246165156364441,-0.08918632566928864
1660273660953361700,0.369361572265625,0.3090978264808655,-1.1948524713516235,-0.10445795953273773
1660273660955361500,0.371361572265625,0.3072652220726013,-1.1679743528366089,-0.11301007121801376
1660273660957362400,0.373362548828125,0.3029891550540924,-1.1148290634155273,-0.1264491081237793
1660273660959363300,0.37536328125,0.30115658044815063,-1.0616837739944458,-0.1411098688840866
1660273660961363000,0.377363037109375,0.29138273000717163,-1.0366383790969849,-0.1466076523065567
1660273660963362800,0.37936279296875,0.2785545587539673,-0.9865473508834839,-0.15821409225463867
1660273660965363700,0.38136376953125,0.26450464129447937,-0.9352346658706665,-0.1716531366109848
1660273660967363600,0.383363525390625,0.2541199326515198,-0.9089674949645996,-0.1771509200334549
1660273660969363700,0.38536376953125,0.23518311977386475,-0.8607091307640076,-0.18814650177955627
1660273660971363800,0.38736376953125,0.22357667982578278,-0.8387179970741272,-0.19364428520202637
1660273660973363700,0.38936376953125,0.2015855312347412,-0.79840087890625,-0.21013765037059784
1660273660975363600,0.391363525390625,0.17287486791610718,-0.7623597979545593,-0.22479841113090515
1660273660977363000,0.393363037109375,0.06841690838336945,-0.6670648455619812,-0.31154128909111023
1660273660979361800,0.39536181640625,0.06841690838336945,-0.6670648455619812,-0.31154128909111023
1660273660981361200,0.397361083984375,0.06841690838336945,-0.6670648455619812,-0.31154128909111023
1660273660983360300,0.3993603515625,0.06841690838336945,-0.6670648455619812,-0.31154128909111023
1660273660985360100,0.401360107421875,0.05253441259264946,-0.655458390712738,-0.3286454975605011
1660273660987360300,0.4033603515625,0.018936822190880775,-0.6304129362106323,-0.3579670190811157
1660273660989360000,0.405360107421875,0.006108652334660292,-0.617584764957428,-0.37201693654060364
1660273660991360300,0.4073603515625,-0.02015855349600315,-0.5900958180427551,-0.40194934606552124
1660273660993360100,0.409360107421875,-0.04153883829712868,-0.5644394755363464,-0.42577308416366577
1660273660995359200,0.411359130859375,-0.05009094998240471,-0.5516113042831421,-0.4386012554168701
1660273660997360000,0.413360107421875,-0.06536258012056351,-0.523511528968811,-0.46242499351501465
1660273660999361000,0.415361083984375,-0.07696902006864548,-0.49785518646240234,-0.4807509481906891
1660273661001361700,0.417361572265625,-0.08002334833145142,-0.4862487316131592,-0.4911356568336487
1660273661003362600,0.419362548828125,-0.0861319974064827,-0.45875978469848633,-0.50335294008255
1660273661005362400,0.421362548828125,-0.08429940044879913,-0.4288274049758911,-0.5192354321479797
1660273661007362600,0.423362548828125,-0.0861319974064827,-0.41599923372268677,-0.5241223573684692
1660273661009362400,0.425362548828125,-0.08002334833145142,-0.3897320330142975,-0.53328537940979
1660273661011362600,0.427362548828125,-0.07757988572120667,-0.37201693654060364,-0.5424483418464661
1660273661013362400,0.429362548828125,-0.07635815441608429,-0.3640756905078888,-0.5461135506629944
1660273661015362600,0.431362548828125,-0.07147123664617538,-0.3494149148464203,-0.5522221922874451
1660273661017361700,0.433361572265625,-0.08918632566928864,-0.35124751925468445,-0.5839871764183044
1660273661019360800,0.43536083984375,-0.08918632566928864,-0.35124751925468445,-0.5839871764183044
1660273661021360000,0.437360107421875,-0.0959058403968811,-0.35613444447517395,-0.5845980644226074
1660273661023359200,0.439359130859375,-0.0959058403968811,-0.35613444447517395,-0.5845980644226074
1660273661025358300,0.4413583984375,-0.0959058403968811,-0.35613444447517395,-0.5845980644226074
1660273661027357400,0.443357421875,-0.1007927656173706,-0.36102136969566345,-0.588263213634491
1660273661029357600,0.445357666015625,-0.10567969083786011,-0.3677408695220947,-0.5900958180427551
1660273661031357400,0.447357421875,-0.11545353382825851,-0.3781255781650543,-0.5943718552589417
1660273661033357600,0.449357666015625,-0.13011430203914642,-0.39645153284072876,-0.5992587804794312
1660273661035357700,0.451357666015625,-0.1459967941045761,-0.4190535545349121,-0.6047565937042236
1660273661037357800,0.45335791015625,-0.1514945775270462,-0.43188172578811646,-0.6029239892959595
1660273661039357700,0.455357666015625,-0.1667662113904953,-0.4593706727027893,-0.6053674817085266
1660273661041357800,0.45735791015625,-0.1765400618314743,-0.4893030524253845,-0.6090326309204102
1660273661043357700,0.459357666015625,-0.18081611394882202,-0.5064072608947754,-0.6114761233329773
1660273661045358000,0.461358154296875,-0.18875735998153687,-0.5387831330299377,-0.6139195561408997
1660273661047358200,0.463358154296875,-0.19486601650714874,-0.5711590051651001,-0.6114761233329773
1660273661049358300,0.4653583984375,-0.19364428520202637,-0.5858197808265686,-0.6120869517326355
1660273661051358500,0.4673583984375,-0.1966986060142517,-0.6120869517326355,-0.6090326309204102
1660273661053358600,0.469358642578125,-0.192422553896904,-0.6395758986473083,-0.6029239892959595
1660273661055358700,0.471358642578125,-0.18997909128665924,-0.6511823534965515,-0.5998696684837341
1660273661057356300,0.473356201171875,-0.18814650177955627,-0.6878342628479004,-0.5931501388549805
1660273661059356400,0.4753564453125,-0.18570303916931152,-0.7012733221054077,-0.5894849896430969
1660273661061356300,0.477356201171875,-0.18448130786418915,-0.7147123217582703,-0.5907067060470581
1660273661063356400,0.4793564453125,-0.19058994948863983,-0.7458664774894714,-0.5974262356758118
1660273661065356300,0.481356201171875,-0.2021963894367218,-0.779464066028595,-0.6145304441452026
1660273661067357200,0.483357177734375,-0.20952677726745605,-0.7904596328735352,-0.6255260109901428
1660273661069357300,0.485357421875,-0.22602014243602753,-0.8057312369346619,-0.636521577835083
1660273661071357200,0.487357177734375,-0.23640485107898712,-0.8087855577468872,-0.637132465839386
1660273661073357300,0.489357421875,-0.24373523890972137,-0.808174729347229,-0.6359107494354248
1660273661075357200,0.491357177734375,-0.2541199326515198,-0.8038986921310425,-0.6291912198066711
1660273661077357300,0.493357421875,-0.26083946228027344,-0.7941248416900635,-0.6206390857696533
1660273661079357200,0.495357177734375,-0.2626720666885376,-0.7855727076530457,-0.6188064813613892
1660273661081357300,0.497357421875,-0.26939156651496887,-0.769079327583313,-0.6090326309204102
1660273661083357200,0.499357177734375,-0.2730567753314972,-0.7544185519218445,-0.6059783101081848
1660273661085357300,0.501357421875,-0.27611109614372253,-0.7458664774894714,-0.6023131608963013
1660273661087357200,0.503357177734375,-0.2816088795661926,-0.7232644557952881,-0.5907067060470581
1660273661089357300,0.505357421875,-0.2871066629886627,-0.6884451508522034,-0.5839871764183044
1660273661091357200,0.507357177734375,-0.2919935882091522,-0.665232241153717,-0.5827654600143433
1660273661093357300,0.509357421875,-0.303600013256073,-0.6212499737739563,-0.5760459303855896
1660273661095357400,0.511357421875,-0.31581732630729675,-0.5766568183898926,-0.5766568183898926
1660273661097356500,0.5133564453125,-0.3176499307155609,-0.5638286471366882,-0.5943718552589417
1660273661099355600,0.515355712890625,-0.3176499307155609,-0.5638286471366882,-0.5943718552589417
1660273661101355800,0.517355712890625,-0.3121521472930908,-0.5791002511978149,-0.6029239892959595
1660273661103356000,0.51935595703125,-0.3072652220726013,-0.6041457056999207,-0.6096435189247131
1660273661105355800,0.521355712890625,-0.2938261926174164,-0.6536257863044739,-0.6298020482063293
1660273661107356000,0.52335595703125,-0.2767219543457031,-0.7134906053543091,-0.6493497490882874
1660273661109355800,0.525355712890625,-0.2687807083129883,-0.7354817390441895,-0.656069278717041
1660273661111355600,0.527355712890625,-0.25106561183929443,-0.7678576111793518,-0.6792821288108826
1660273661113355800,0.529355712890625,-0.2376265823841095,-0.7843509912490845,-0.6933320760726929
1660273661115355600,0.531355712890625,-0.23273965716362,-0.7861835956573486,-0.6982190012931824
1660273661117356500,0.5333564453125,-0.2217440903186798,-0.778853178024292,-0.7128797173500061
1660273661119356400,0.5353564453125,-0.21319197118282318,-0.7629706859588623,-0.720820963382721
1660273661121356500,0.5373564453125,-0.21013765037059784,-0.7550294399261475,-0.7226535677909851
1660273661123356400,0.5393564453125,-0.20341812074184418,-0.740368664264679,-0.7275404930114746
1660273661125356500,0.5413564453125,-0.19914206862449646,-0.7348709106445312,-0.7318165898323059
1660273661127356400,0.5433564453125,-0.19975294172763824,-0.7373143434524536,-0.7330383062362671
1660273661129356500,0.5453564453125,-0.19608774781227112,-0.7470881938934326,-0.7336491346359253
1660273661131356400,0.5473564453125,-0.19303341209888458,-0.7605272531509399,-0.7354817390441895
1660273661133356500,0.5493564453125,-0.18997909128665924,-0.770301103591919,-0.7367035150527954
1660273661135356200,0.551356201171875,-0.18448130786418915,-0.7922922372817993,-0.740368664264679
1660273661137355300,0.553355224609375,-0.16065755486488342,-0.8881980776786804,-0.7189884185791016
1660273661139354600,0.555354736328125,-0.16065755486488342,-0.8881980776786804,-0.7189884185791016
1660273661141353700,0.557353759765625,-0.16065755486488342,-0.8881980776786804,-0.7189884185791016
1660273661143352800,0.559352783203125,-0.16065755486488342,-0.8881980776786804,-0.7189884185791016
1660273661145353000,0.56135302734375,-0.15515977144241333,-0.8973610401153564,-0.7153232097625732
1660273661147352800,0.563352783203125,-0.15027284622192383,-0.9260717034339905,-0.7012733221054077
1660273661149353000,0.56535302734375,-0.1411098688840866,-0.9541715383529663,-0.685390830039978
1660273661151352800,0.567352783203125,-0.13744467496871948,-0.9657779335975647,-0.6743952035903931
1660273661153352700,0.569352783203125,-0.1313360333442688,-0.9908234477043152,-0.6530149579048157
1660273661155352800,0.571352783203125,-0.1264491081237793,-1.0201449394226074,-0.6298020482063293
1660273661157353500,0.573353515625,-0.12522737681865692,-1.0348057746887207,-0.617584764957428
1660273661159354400,0.575354248046875,-0.11972958594560623,-1.0708467960357666,-0.5858197808265686
1660273661161354200,0.577354248046875,-0.11545353382825851,-1.1093312501907349,-0.5564982295036316
1660273661163354400,0.579354248046875,-0.11239920556545258,-1.130711555480957,-0.5400048494338989
1660273661165354200,0.581354248046875,-0.10690141469240189,-1.1753047704696655,-0.5088507533073425
1660273661167354400,0.583354248046875,-0.1014036312699318,-1.2205088138580322,-0.4709770977497101
1660273661169354500,0.5853544921875,-0.09651670604944229,-1.2424999475479126,-0.4538728892803192
1660273661171354600,0.587354736328125,-0.08429940044879913,-1.2877039909362793,-0.4147774875164032
1660273661173354500,0.5893544921875,-0.07330382615327835,-1.3255776166915894,-0.37140607833862305
1660273661175354600,0.591354736328125,-0.06902777403593063,-1.3420709371566772,-0.35124751925468445
1660273661177353700,0.593353759765625,-0.031154127791523933,-1.4220943450927734,-0.192422553896904
1660273661179352800,0.595352783203125,-0.02687807008624077,-1.4300355911254883,-0.16554448008537292
1660273661181352200,0.597352294921875,-0.02687807008624077,-1.4300355911254883,-0.16554448008537292
1660273661183351300,0.599351318359375,-0.02687807008624077,-1.4300355911254883,-0.16554448008537292
1660273661185351200,0.60135107421875,-0.027488935738801956,-1.4355332851409912,-0.14233160018920898
1660273661187351300,0.603351318359375,-0.024434609338641167,-1.4410310983657837,-0.1215621829032898
1660273661189351000,0.605350830078125,-0.021380282938480377,-1.451415777206421,-0.07635815441608429
1660273661191350800,0.607350830078125,-0.018936822190880775,-1.46424400806427,-0.039706241339445114
1660273661193351000,0.609350830078125,-0.018936822190880775,-1.4697418212890625,-0.02626720629632473
1660273661195351300,0.611351318359375,-0.01771509274840355,-1.482569932937622,0.006719517521560192
1660273661197352000,0.61335205078125,-0.013439035043120384,-1.4960089921951294,0.030543262138962746
1660273661199352800,0.615352783203125,-0.009773843921720982,-1.5039502382278442,0.039095375686883926
1660273661201353700,0.617353759765625,-0.003054326167330146,-1.5173892974853516,0.05314527451992035
1660273661203354600,0.619354736328125,0.00855211354792118,-1.5338826179504395,0.05803219974040985
1660273661205354500,0.6213544921875,0.018936822190880775,-1.5399912595748901,0.05864306539297104
1660273661207354600,0.623354736328125,0.04214970022439957,-1.5570955276489258,0.05314527451992035
1660273661209354800,0.625354736328125,0.06658431142568588,-1.5711454153060913,0.03848451003432274
1660273661211354600,0.627354736328125,0.08307767659425735,-1.5778648853302002,0.02932153269648552
1660273661213354800,0.629354736328125,0.1215621829032898,-1.5900822877883911,0.004886921960860491
1660273661215355000,0.63135498046875,0.16310101747512817,-1.6022995710372925,-0.02932153269648552
1660273661217354000,0.63335400390625,0.4043927788734436,-1.607797384262085,-0.24862214922904968
1660273661219353000,0.63535302734375,0.44226643443107605,-1.5986343622207642,-0.28527405858039856
1660273661221352200,0.637352294921875,0.4758640229701996,-1.5906931161880493,-0.32620203495025635
1660273661223351300,0.639351318359375,0.4758640229701996,-1.5906931161880493,-0.32620203495025635
1660273661225351400,0.641351318359375,0.4758640229701996,-1.5906931161880493,-0.32620203495025635
1660273661227350300,0.643350341796875,0.4758640229701996,-1.5906931161880493,-0.32620203495025635
1660273661229350400,0.645350341796875,0.5149593949317932,-1.580308437347412,-0.3634648323059082
1660273661231350000,0.64735009765625,0.5907067060470581,-1.5503759384155273,-0.4495968222618103
1660273661233350000,0.649349853515625,0.6633996367454529,-1.518610954284668,-0.5393940210342407
1660273661235349800,0.651349853515625,0.6994407176971436,-1.4978415966033936,-0.588874101638794
1660273661237350000,0.653349853515625,0.770301103591919,-1.4581353664398193,-0.6866125464439392
1660273661239349800,0.655349853515625,0.8429940342903137,-1.415374755859375,-0.788627028465271
1660273661241350000,0.657349853515625,0.8778133392333984,-1.3927727937698364,-0.836885392665863
1660273661243349800,0.659349853515625,0.949895441532135,-1.3445143699645996,-0.9376781582832336
1660273661245350000,0.661349853515625,1.017701506614685,-1.291369080543518,-1.0311405658721924
1660273661247350000,0.66335009765625,1.0519099235534668,-1.2577714920043945,-1.0769554376602173
1660273661249350100,0.66535009765625,1.1227703094482422,-1.1924089193344116,-1.1643091440200806
1660273661251350300,0.667350341796875,1.1850786209106445,-1.1142182350158691,-1.2412781715393066
1660273661253350400,0.669350341796875,1.214400053024292,-1.074512004852295,-1.2767083644866943
1660273661255350500,0.6713505859375,1.2718214988708496,-0.988990843296051,-1.3469579219818115
1660273661257348000,0.67334814453125,1.3451253175735474,-0.8625417351722717,-1.434922456741333
1660273661259348200,0.67534814453125,1.3451253175735474,-0.8625417351722717,-1.434922456741333
1660273661261348400,0.677348388671875,1.3854423761367798,-0.7843509912490845,-1.482569932937622
1660273661263348200,0.67934814453125,1.4159855842590332,-0.7079927921295166,-1.5259413719177246
1660273661265348400,0.681348388671875,1.4324790239334106,-0.6737843751907349,-1.5418238639831543
1660273661267348200,0.68334814453125,1.4538593292236328,-0.607200026512146,-1.5723671913146973
1660273661269348400,0.685348388671875,1.4715744256973267,-0.5497786998748779,-1.5961909294128418
1660273661271347500,0.687347412109375,1.4795156717300415,-0.5253441333770752,-1.6035212278366089
1660273661273347600,0.68934765625,1.4874569177627563,-0.484416127204895,-1.6139060258865356
1660273661275347500,0.691347412109375,1.4911220073699951,-0.45326200127601624,-1.615127682685852
1660273661277347600,0.69334765625,1.4941763877868652,-0.44287729263305664,-1.613295078277588
1660273661279347700,0.69534765625,1.4960089921951294,-0.43127086758613586,-1.6016886234283447
1660273661281347600,0.69734765625,1.4966198205947876,-0.4349360466003418,-1.5845844745635986
1660273661283347700,0.69934765625,1.4953981637954712,-0.4386012554168701,-1.5717562437057495
1660273661285347800,0.701347900390625,1.4996742010116577,-0.46181413531303406,-1.540602207183838
1660273661287347700,0.70334765625,1.5015068054199219,-0.494189977645874,-1.5063936710357666
1660273661289347800,0.705347900390625,1.5027284622192383,-0.513737678527832,-1.4856243133544922
1660273661291347700,0.70734765625,1.5027284622192383,-0.5626068711280823,-1.4367550611495972
1660273661293347800,0.709347900390625,1.5063936710357666,-0.6230825781822205,-1.387274980545044
1660273661295348000,0.711347900390625,1.5076154470443726,-0.6603453159332275,-1.3585642576217651
1660273661297347000,0.71334716796875,1.522887110710144,-0.8484918475151062,-1.2400563955307007
1660273661299346200,0.71534619140625,1.522887110710144,-0.8484918475151062,-1.2400563955307007
1660273661301346300,0.71734619140625,1.5271631479263306,-0.9053022861480713,-1.2101240158081055
1660273661303346200,0.71934619140625,1.539380431175232,-1.0207557678222656,-1.1410962343215942
1660273661305346300,0.72134619140625,1.549154281616211,-1.1313223838806152,-1.0739010572433472
1660273661307346200,0.72334619140625,1.5546520948410034,-1.1856894493103027,-1.0409144163131714
1660273661309346300,0.72534619140625,1.5564846992492676,-1.292590856552124,-0.96883225440979
1660273661311346200,0.72734619140625,1.5497651100158691,-1.4025466442108154,-0.8979719281196594
1660273661313346000,0.729345947265625,1.5442672967910767,-1.455691933631897,-0.8625417351722717
1660273661315346200,0.73134619140625,1.5265522003173828,-1.557706356048584,-0.788016140460968
1660273661317347000,0.73334716796875,1.503339409828186,-1.6493362188339233,-0.7122688889503479
1660273661319347000,0.735346923828125,1.4856243133544922,-1.690264105796814,-0.6743952035903931
1660273661321346800,0.737346923828125,1.451415777206421,-1.7635679244995117,-0.5955936312675476
1660273661323347000,0.739346923828125,1.4080443382263184,-1.8099937438964844,-0.5174028873443604
1660273661325346800,0.741346923828125,1.3866641521453857,-1.825876235961914,-0.4789183437824249
1660273661327347000,0.743346923828125,1.3353514671325684,-1.8380935192108154,-0.3988949954509735
1660273661329347000,0.74534716796875,1.2822061777114868,-1.8301522731781006,-0.3182607889175415
1660273661331347500,0.747347412109375,1.2528846263885498,-1.8185458183288574,-0.2779437005519867
1660273661333347600,0.74934765625,1.19912850856781,-1.7849482297897339,-0.19303341209888458
1660273661335347500,0.751347412109375,1.141707181930542,-1.7385225296020508,-0.1062905490398407
1660273661337346600,0.7533466796875,0.979827880859375,-1.5112806558609009,0.15882496535778046
1660273661339345700,0.755345703125,0.950506329536438,-1.4648548364639282,0.20341812074184418
1660273661341344800,0.7573447265625,0.950506329536438,-1.4648548364639282,0.20341812074184418
1660273661343343900,0.75934375,0.950506329536438,-1.4648548364639282,0.20341812074184418
1660273661345344000,0.761343994140625,0.9242390990257263,-1.4159855842590332,0.2480112910270691
1660273661347344000,0.76334375,0.8753699064254761,-1.3145819902420044,0.33597588539123535
1660273661349343700,0.76534375,0.8472700715065002,-1.2626584768295288,0.38179078698158264
1660273661351343900,0.76734375,0.7971791625022888,-1.150259256362915,0.4691445231437683
1660273661353343700,0.76934375,0.750142514705658,-1.0390818119049072,0.5522221922874451
1660273661355344000,0.77134375,0.7244861721992493,-0.9816604256629944,0.5943718552589417
1660273661357344800,0.7733447265625,0.6798930168151855,-0.8674286603927612,0.6731734871864319
1660273661359345400,0.775345458984375,0.6389650702476501,-0.7574729323387146,0.7476990818977356
1660273661361345500,0.777345458984375,0.6212499737739563,-0.7055493593215942,0.7837401032447815
1660273661363345400,0.779345458984375,0.5864306092262268,-0.6053674817085266,0.8521569967269897
1660273661365345500,0.781345458984375,0.5589417219161987,-0.5106833577156067,0.911410927772522
1660273661367345700,0.783345703125,0.5448917746543884,-0.4691445231437683,0.9388998746871948
1660273661369345500,0.785345458984375,0.523511528968811,-0.38606682419776917,0.9902125597000122
1660273661371345700,0.787345703125,0.5088507533073425,-0.313373863697052,1.034194827079773
1660273661373345500,0.789345458984375,0.5027421116828918,-0.27977627515792847,1.0500773191452026
1660273661375345700,0.791345703125,0.49296826124191284,-0.21868975460529327,1.0836749076843262
1660273661377344800,0.7933447265625,0.4954117238521576,-0.06475171446800232,1.1478158235549927
1660273661379344000,0.79534375,0.49785518646240234,-0.05803219974040985,1.150259256362915
1660273661381343000,0.797343017578125,0.5027421116828918,-0.05253441259264946,1.1496484279632568
1660273661383342000,0.799342041015625,0.5027421116828918,-0.05253441259264946,1.1496484279632568
1660273661385341200,0.801341064453125,0.5027421116828918,-0.05253441259264946,1.1496484279632568
1660273661387340800,0.8033408203125,0.5027421116828918,-0.05253441259264946,1.1496484279632568
1660273661389340700,0.805340576171875,0.5088507533073425,-0.04581489413976669,1.1447614431381226
1660273661391340800,0.8073408203125,0.513737678527832,-0.04764748737215996,1.1447614431381226
1660273661393340200,0.809340087890625,0.5229006409645081,-0.05253441259264946,1.1380419731140137
1660273661395340300,0.81134033203125,0.5314527750015259,-0.060475658625364304,1.1276572942733765
1660273661397340200,0.813340087890625,0.5369505286216736,-0.06719517707824707,1.1215485334396362
1660273661399344000,0.81534423828125,0.5503895878791809,-0.0861319974064827,1.1062769889831543
1660273661401344300,0.81734423828125,0.5607742667198181,-0.10934487730264664,1.0910053253173828
1660273661403344600,0.8193447265625,0.5662720799446106,-0.11484266817569733,1.081842303276062
1660273661405344800,0.8213447265625,0.5748242139816284,-0.13988813757896423,1.0653489828109741
1660273661407345200,0.82334521484375,0.5803219676017761,-0.16371189057826996,1.0458012819290161
1660273661409345300,0.82534521484375,0.5839871764183044,-0.17531833052635193,1.0348057746887207
1660273661411345400,0.827345458984375,0.5864306092262268,-0.20036379992961884,1.0195341110229492
1660273661413345500,0.829345458984375,0.5858197808265686,-0.2278527319431305,1.0042624473571777
1660273661415345700,0.831345703125,0.5803219676017761,-0.24068090319633484,0.998153805732727
1660273661417343200,0.83334326171875,0.5076290369033813,-0.3396410644054413,0.979827880859375
1660273661419340800,0.8353408203125,0.5076290369033813,-0.3396410644054413,0.979827880859375
1660273661421338600,0.837338623046875,0.4960225820541382,-0.34758231043815613,0.9853256344795227
1660273661423336700,0.839336669921875,0.4960225820541382,-0.34758231043815613,0.9853256344795227
1660273661425334800,0.841334716796875,0.4960225820541382,-0.34758231043815613,0.9853256344795227
1660273661427333000,0.8433330078125,0.4789183437824249,-0.35063666105270386,0.9877691268920898
1660273661429333000,0.8453330078125,0.46303585171699524,-0.35674530267715454,0.99876469373703
1660273661431333000,0.8473330078125,0.42699480056762695,-0.36102136969566345,1.0183123350143433
1660273661433333000,0.8493330078125,0.40622538328170776,-0.36163222789764404,1.0293079614639282
1660273661435333000,0.8513330078125,0.3640756905078888,-0.35552358627319336,1.054964303970337
1660273661437332200,0.853332275390625,0.3170390725135803,-0.34636059403419495,1.0787880420684814
1660273661439332000,0.85533203125,0.29504790902137756,-0.3433062732219696,1.0971139669418335
1660273661441332200,0.857332275390625,0.24373523890972137,-0.3335324227809906,1.1227703094482422
1660273661443332000,0.85933203125,0.19120082259178162,-0.33292156457901,1.1582005023956299
1660273661445332200,0.861332275390625,0.16310101747512817,-0.33108896017074585,1.1728612184524536
1660273661447334000,0.863333984375,0.10506882518529892,-0.3243694305419922,1.2021827697753906
1660273661453415200,0.869415283203125,0.07635815441608429,-0.3219259977340698,1.2357803583145142
1660273661455415000,0.8714150390625,0.016493361443281174,-0.3182607889175415,1.2516628503799438
1660273661457415000,0.873414794921875,-0.04703662544488907,-0.31093040108680725,1.2822061777114868
1660273661459415800,0.875415771484375,-0.10995574295520782,-0.3029891550540924,1.313360333442688
1660273661461413000,0.8774130859375,-0.16798794269561768,-0.29138273000717163,1.3469579219818115
1660273661463413000,0.8794130859375,-0.19853121042251587,-0.2877175211906433,1.3628404140472412
1660273661465412900,0.881412841796875,-0.23029619455337524,-0.28099802136421204,1.3756685256958008
1660273661467410700,0.88341064453125,-0.28649580478668213,-0.2681698501110077,1.4074335098266602
1660273661469410600,0.88541064453125,-0.3378084897994995,-0.25045475363731384,1.4367550611495972
1660273661471411000,0.887410888671875,-0.36529740691185,-0.23640485107898712,1.4563027620315552
1660273661473410800,0.889410888671875,-0.413555771112442,-0.21441370248794556,1.4880677461624146
1660273661475411000,0.891410888671875,-0.45692721009254456,-0.1869247704744339,1.5180001258850098
1660273661477410800,0.893410888671875,-0.4764748811721802,-0.17287486791610718,1.5351043939590454
1660273661479410700,0.89541064453125,-0.5155702829360962,-0.1411098688840866,1.5680910348892212
1660273661481410600,0.89741064453125,-0.5497786998748779,-0.11301007121801376,1.5998560190200806
1660273661483410700,0.89941064453125,-0.5674937963485718,-0.09834930300712585,1.6169602870941162
1660273661485410600,0.90141064453125,-0.59803706407547,-0.0708603709936142,1.6493362188339233
1660273661487410700,0.90341064453125,-0.6249151229858398,-0.04092797264456749,1.6786576509475708
1660273661489410600,0.90541064453125,-0.6414085030555725,-0.02871066704392433,1.6927075386047363
1660273661491410700,0.90741064453125,-0.6664539575576782,-0.001832595793530345,1.7220290899276733
1660273661493410300,0.909410400390625,-0.6933320760726929,0.02076941914856434,1.750128984451294
1660273661495410200,0.91141015625,-0.7049384713172913,0.031154127791523933,1.7654005289077759
1660273661497410300,0.913410400390625,-0.7281513810157776,0.051312681287527084,1.7904460430145264
1660273661499410200,0.91541015625,-0.7513642311096191,0.07147123664617538,1.817324161529541
1660273661501409300,0.9174091796875,-0.797789990901947,0.11301007121801376,1.8643606901168823
1660273661503408400,0.919408447265625,-0.797789990901947,0.11301007121801376,1.8643606901168823
1660273661505408500,0.921408447265625,-0.808174729347229,0.12034045159816742,1.8777997493743896
1660273661507409200,0.9234091796875,-0.817948579788208,0.1270599663257599,1.8906279802322388
1660273661509409300,0.9254091796875,-0.8405506014823914,0.14049901068210602,1.9132299423217773
1660273661511409000,0.927408935546875,-0.8625417351722717,0.15332718193531036,1.9382754564285278
1660273661513408800,0.92940869140625,-0.8723155856132507,0.15821409225463867,1.9492709636688232
1660273661515409000,0.931408935546875,-0.8888089060783386,0.16554448008537292,1.9773707389831543
1660273661517408800,0.93340869140625,-0.9083566069602966,0.17287486791610718,2.001805305480957
1660273661519407900,0.935407958984375,-0.9187413454055786,0.1716531366109848,2.012800931930542
1660273661521408800,0.93740869140625,-0.9352346658706665,0.1765400618314743,2.03540301322937
1660273661523409000,0.939408935546875,-0.9511171579360962,0.17409659922122955,2.0610592365264893
1660273661525408800,0.94140869140625,-0.9547823667526245,0.1722639948129654,2.0732767581939697
1660273661527409700,0.94340966796875,-0.9682214260101318,0.16798794269561768,2.0946569442749023
1660273661529409800,0.945409912109375,-0.9810495972633362,0.16065755486488342,2.121535062789917
1660273661531409400,0.947409423828125,-0.9865473508834839,0.15882496535778046,2.1313087940216064
1660273661533409500,0.949409423828125,-0.9944885969161987,0.14844025671482086,2.152078151702881
1660273661535409700,0.95140966796875,-1.0054842233657837,0.1368338167667389,2.171625852584839
1660273661537409500,0.953409423828125,-1.0103710889816284,0.1270599663257599,2.1795670986175537
1660273661539409700,0.95540966796875,-1.024420976638794,0.10995574295520782,2.1960606575012207
1660273661541408800,0.95740869140625,-1.0684033632278442,0.03787364438176155,2.2174408435821533
1660273661543407900,0.959407958984375,-1.0684033632278442,0.03787364438176155,2.2174408435821533
1660273661545407000,0.961406982421875,-1.0684033632278442,0.03787364438176155,2.2174408435821533
1660273661547406300,0.96340625,-1.0684033632278442,0.03787364438176155,2.2174408435821533
1660273661549406200,0.96540625,-1.0769554376602173,0.02626720629632473,2.216219186782837
1660273661551406000,0.967406005859375,-1.0946705341339111,0.005497787147760391,2.211332082748413
1660273661553406500,0.969406494140625,-1.111163854598999,-0.015882495790719986,2.2046127319335938
1660273661555406000,0.971406005859375,-1.122159481048584,-0.03420845419168472,2.1923954486846924
1660273661557405700,0.97340576171875,-1.1386528015136719,-0.042760565876960754,2.186286687850952
1660273661559405600,0.975405517578125,-1.1557570695877075,-0.05619960278272629,2.1710150241851807
1660273661561406500,0.977406494140625,-1.1655309200286865,-0.06291911751031876,2.1618521213531494
1660273661563407400,0.979407470703125,-1.1832460165023804,-0.07269296050071716,2.1423044204711914
1660273661565407000,0.981406982421875,-1.2003501653671265,-0.08429940044879913,2.1252002716064453
1660273661567406000,0.983406005859375,-1.2095131874084473,-0.08796459436416626,2.1111502647399902
1660273661569406200,0.98540625,-1.2223412990570068,-0.09896016865968704,2.090380907058716
1660273661571406300,0.98740625,-1.2345587015151978,-0.10751228034496307,2.068389654159546
1660273661573406200,0.98940625,-1.2400563955307007,-0.11239920556545258,2.059837579727173
1660273661575406300,0.99140625,-1.2473868131637573,-0.12217304855585098,2.0396790504455566
1660273661577406200,0.99340625,-1.2473868131637573,-0.1313360333442688,2.0201313495635986
1660273661579406800,0.99540673828125,-1.2479976415634155,-0.13561208546161652,2.0115792751312256
1660273661581406200,0.99740625,-1.2137892246246338,-0.15760323405265808,1.949881911277771
1660273661583405300,0.9994052734375,-1.2137892246246338,-0.15760323405265808,1.949881911277771
1660273661585404400,1.001404296875,-1.2137892246246338,-0.15760323405265808,1.949881911277771
1660273661587403500,1.003403564453125,-1.2137892246246338,-0.15760323405265808,1.949881911277771
1660273661589403400,1.0054033203125,-1.2064588069915771,-0.15943582355976105,1.9407188892364502
1660273661591403500,1.007403564453125,-1.197295904159546,-0.15577064454555511,1.9352210760116577
1660273661593403400,1.0094033203125,-1.1832460165023804,-0.15577064454555511,1.9230037927627563
1660273661595403300,1.0114033203125,-1.1649199724197388,-0.15454891324043274,1.9138407707214355
1660273661597404700,1.01340478515625,-1.1557570695877075,-0.1514945775270462,1.9058995246887207
1660273661599404500,1.015404541015625,-1.1355985403060913,-0.14355333149433136,1.8949040174484253
1660273661601405400,1.017405517578125,-1.1129964590072632,-0.13744467496871948,1.882686734199524
1660273661603406000,1.019406005859375,-1.1032226085662842,-0.1319468915462494,1.8765780925750732
1660273661605407000,1.021406982421875,-1.076344609260559,-0.12217304855585098,1.8643606901168823
1660273661607407900,1.023407958984375,-1.0464121103286743,-0.11423180252313614,1.8490891456604004
1660273661609407700,1.02540771484375,-1.0305296182632446,-0.1111774742603302,1.8387043476104736
1660273661611408000,1.027407958984375,-1.0030407905578613,-0.10445795953273773,1.8203784227371216
1660273661613408000,1.029407958984375,-0.9712757468223572,-0.09773843735456467,1.7996090650558472
1660273661615408400,1.031408447265625,-0.9541715383529663,-0.09651670604944229,1.7904460430145264
1660273661617408800,1.03340869140625,-0.9236282706260681,-0.09529497474431992,1.7678439617156982
1660273661619409000,1.035408935546875,-0.8912523984909058,-0.09651670604944229,1.7470746040344238
1660273661621408000,1.037407958984375,-0.7721336483955383,-0.13011430203914642,1.665218710899353
1660273661623407000,1.039406982421875,-0.759305477142334,-0.14049901068210602,1.6560556888580322
1660273661625406700,1.04140673828125,-0.7458664774894714,-0.15027284622192383,1.6487252712249756
1660273661627405800,1.04340576171875,-0.7458664774894714,-0.15027284622192383,1.6487252712249756
1660273661629404700,1.04540478515625,-0.7458664774894714,-0.15027284622192383,1.6487252712249756
1660273661631403800,1.04740380859375,-0.7458664774894714,-0.15027284622192383,1.6487252712249756
1660273661633404000,1.04940380859375,-0.7360926270484924,-0.1618792861700058,1.6413949728012085
1660273661635403800,1.05140380859375,-0.7092145681381226,-0.1820378452539444,1.6218472719192505
1660273661637403600,1.053403564453125,-0.6860016584396362,-0.20952677726745605,1.607797384262085
1660273661639403800,1.05540380859375,-0.675616979598999,-0.2223549485206604,1.5986343622207642
1660273661641404700,1.05740478515625,-0.656680166721344,-0.2528982162475586,1.5839735269546509
1660273661643404800,1.05940478515625,-0.6414085030555725,-0.2828305959701538,1.5668693780899048
1660273661645404700,1.06140478515625,-0.6322455406188965,-0.2974913716316223,1.5601497888565063
1660273661647404800,1.06340478515625,-0.618195652961731,-0.3292563557624817,1.5454890727996826
1660273661649404700,1.06540478515625,-0.607200026512146,-0.36102136969566345,1.531439185142517
1660273661651412200,1.067412109375,-0.6017022728919983,-0.37690386176109314,1.5241087675094604
1660273661653412400,1.069412353515625,-0.59803706407547,-0.4098905920982361,1.5106697082519531
1660273661655412200,1.071412109375,-0.5949827432632446,-0.44165557622909546,1.490511178970337
1660273661657412400,1.073412353515625,-0.5962044596672058,-0.455705463886261,1.4850133657455444
1660273661659412200,1.075412109375,-0.6029239892959595,-0.4893030524253845,1.4685200452804565
1660273661661409500,1.077409423828125,-0.6145304441452026,-0.5351179838180542,1.4379768371582031
1660273661663409400,1.079409423828125,-0.6145304441452026,-0.5351179838180542,1.4379768371582031
1660273661665409300,1.0814091796875,-0.626747727394104,-0.5613851547241211,1.4172073602676392
1660273661667409200,1.0834091796875,-0.6377432942390442,-0.5864306092262268,1.395827054977417
1660273661669409000,1.085408935546875,-0.6493497490882874,-0.6010913848876953,1.3848315477371216
1660273661671409000,1.087408935546875,-0.6627888083457947,-0.6200281977653503,1.357953429222107
1660273661673408800,1.08940869140625,-0.6798930168151855,-0.637132465839386,1.3292428255081177
1660273661675408600,1.09140869140625,-0.684779942035675,-0.6438519954681396,1.3145819902420044
1660273661677408800,1.09340869140625,-0.694553792476654,-0.6517932415008545,1.282817006111145
1660273661679408600,1.09540869140625,-0.7018841505050659,-0.6572909951210022,1.2479976415634155
1660273661681408500,1.097408447265625,-0.7049384713172913,-0.6585127115249634,1.2302825450897217
1660273661683408400,1.099408447265625,-0.7073819637298584,-0.6579018831253052,1.1942415237426758
1660273661685408500,1.101408447265625,-0.7092145681381226,-0.6542366743087769,1.1520918607711792
1660273661687408400,1.103408447265625,-0.7079927921295166,-0.6517932415008545,1.1325441598892212
1660273661689408500,1.105408447265625,-0.7018841505050659,-0.6414085030555725,1.0873401165008545
1660273661691408400,1.107408447265625,-0.6908885836601257,-0.6310238242149353,1.0403034687042236
1660273661693408500,1.109408447265625,-0.6829473376274109,-0.6206390857696533,1.017701506614685
1660273661695408400,1.111408447265625,-0.6701191663742065,-0.6035348773002625,0.9706648588180542
1660273661697408500,1.113408447265625,-0.6499606370925903,-0.5839871764183044,0.9224064946174622
1660273661699408400,1.115408447265625,-0.6395758986473083,-0.5748242139816284,0.8973610401153564
1660273661701407500,1.117407470703125,-0.5858197808265686,-0.5290092825889587,0.7996225953102112
1660273661703406800,1.11940673828125,-0.5858197808265686,-0.5290092825889587,0.7996225953102112
1660273661705406700,1.12140673828125,-0.5693264007568359,-0.5167919993400574,0.7739662528038025
1660273661707406800,1.12340673828125,-0.5338962078094482,-0.4948008358478546,0.7214318513870239
1660273661709406700,1.12540673828125,-0.4960225820541382,-0.47219884395599365,0.6695083379745483
1660273661711405300,1.1274052734375,-0.4746423065662384,-0.46181413531303406,0.6450737118721008
1660273661713405200,1.1294052734375,-0.4294382631778717,-0.4392121136188507,0.5913175344467163
1660273661715405300,1.1314052734375,-0.38240164518356323,-0.413555771112442,0.5393940210342407
1660273661717405200,1.1334052734375,-0.3579670190811157,-0.403781920671463,0.5094616413116455
1660273661719405300,1.1354052734375,-0.3066543638706207,-0.3830125033855438,0.45814892649650574
1660273661721406200,1.13740625,-0.24923302233219147,-0.3634648323059082,0.40194934606552124
1660273661723406000,1.139406005859375,-0.22296582162380219,-0.3530801236629486,0.3732386529445648
1660273661725406200,1.14140625,-0.16554448008537292,-0.3341432809829712,0.31459560990333557
1660273661727406300,1.14340625,-0.1062905490398407,-0.3170390725135803,0.2590068578720093
1660273661729406200,1.14540625,-0.07819075137376785,-0.31093040108680725,0.23090706765651703
1660273661731406300,1.14740625,-0.02015855349600315,-0.2968805134296417,0.17409659922122955
1660273661733406500,1.149406494140625,0.03787364438176155,-0.2840523421764374,0.11667526513338089
1660273661735406300,1.15140625,0.06841690838336945,-0.2767219543457031,0.08979719132184982
1660273661737406500,1.153406494140625,0.12278391420841217,-0.2675589919090271,0.03726277872920036
1660273661739406300,1.15540625,0.1771509200334549,-0.2571742534637451,-0.015271631069481373
1660273661741405400,1.157405517578125,0.3591887652873993,-0.2174680233001709,-0.1869247704744339
1660273661743404800,1.15940478515625,0.3591887652873993,-0.2174680233001709,-0.1869247704744339
1660273661745404000,1.16140380859375,0.3591887652873993,-0.2174680233001709,-0.1869247704744339
1660273661747403000,1.163403076171875,0.3591887652873993,-0.2174680233001709,-0.1869247704744339
1660273661749403000,1.16540283203125,0.3830125033855438,-0.21074850857257843,-0.20952677726745605
1660273661751403000,1.167403076171875,0.42760565876960754,-0.19853121042251587,-0.25473082065582275
1660273661753403000,1.16940283203125,0.4544837474822998,-0.19120082259178162,-0.2773328125476837
1660273661755402800,1.17140283203125,0.4954117238521576,-0.182648703455925,-0.32131510972976685
1660273661757403000,1.17340283203125,0.5387831330299377,-0.1771509200334549,-0.36529740691185
1660273661759402800,1.17540283203125,0.5564982295036316,-0.1771509200334549,-0.39095374941825867
1660273661761403100,1.177403076171875,0.5955936312675476,-0.17531833052635193,-0.43799036741256714
1660273661763404000,1.179404052734375,0.6261368989944458,-0.17592918872833252,-0.4856378734111786
1660273661765404000,1.18140380859375,0.6420193910598755,-0.17837265133857727,-0.5106833577156067
1660273661767404000,1.183404052734375,0.6640105247497559,-0.18631389737129211,-0.5583308339118958
1660273661769404000,1.18540380859375,0.6878342628479004,-0.19486601650714874,-0.607810914516449
1660273661771403800,1.18740380859375,0.6963863968849182,-0.2015855312347412,-0.6322455406188965
1660273661773404400,1.189404296875,0.7116580009460449,-0.21502456068992615,-0.6835582256317139
1660273661775404500,1.191404541015625,0.7275404930114746,-0.2321287989616394,-0.7293730974197388
1660273661777404700,1.19340478515625,0.7336491346359253,-0.24373523890972137,-0.7519751191139221
1660273661779404500,1.195404541015625,0.7415903806686401,-0.26572638750076294,-0.7941248416900635
1660273661781403600,1.197403564453125,0.7660250067710876,-0.35735616087913513,-0.9205739498138428
1660273661783402800,1.19940283203125,0.7660250067710876,-0.35735616087913513,-0.9205739498138428
1660273661785401900,1.20140185546875,0.7709119319915771,-0.3695734739303589,-0.9388998746871948
1660273661787401000,1.20340087890625,0.7709119319915771,-0.3695734739303589,-0.9388998746871948
1660273661789401000,1.205401123046875,0.7709119319915771,-0.3695734739303589,-0.9388998746871948
1660273661791401000,1.20740087890625,0.778853178024292,-0.40072759985923767,-0.969443142414093
1660273661793400800,1.20940087890625,0.7916813492774963,-0.4343251883983612,-0.99876469373703
1660273661795401000,1.21140087890625,0.8014551997184753,-0.44776421785354614,-1.015868902206421
1660273661797400800,1.21340087890625,0.8216137290000916,-0.48258355259895325,-1.0488556623458862
1660273661799401000,1.21540087890625,0.8460483551025391,-0.5247332453727722,-1.0885618925094604
1660273661801401900,1.21740185546875,0.8649851679801941,-0.5479460954666138,-1.1136072874069214
1660273661803403000,1.219403076171875,0.9071348905563354,-0.59803706407547,-1.1630873680114746
1660273661805404000,1.22140380859375,0.9547823667526245,-0.6524040699005127,-1.217454433441162
1660273661807404800,1.22340478515625,0.9816604256629944,-0.6823364496231079,-1.2473868131637573
1660273661809404400,1.225404296875,1.0433578491210938,-0.7409795522689819,-1.3151928186416626
1660273661811404500,1.227404541015625,1.1081095933914185,-0.799011766910553,-1.3866641521453857
1660273661813404700,1.22940478515625,1.1410962343215942,-0.8252789378166199,-1.425148606300354
1660273661815404500,1.231404541015625,1.207069754600525,-0.8741481900215149,-1.5051720142364502
1660273661817404700,1.23340478515625,1.2748757600784302,-0.9162978529930115,-1.5894713401794434
1660273661819404500,1.235404541015625,1.301142930984497,-0.9358455538749695,-1.6297885179519653
1660273661821404000,1.23740380859375,1.5265522003173828,-1.0024298429489136,-2.015855312347412
1660273661823403300,1.2394033203125,1.5265522003173828,-1.0024298429489136,-2.015855312347412
1660273661825402400,1.24140234375,1.5467108488082886,-0.9999864101409912,-2.0592267513275146
1660273661827401500,1.2434013671875,1.5467108488082886,-0.9999864101409912,-2.0592267513275146
1660273661829400600,1.245400634765625,1.5656476020812988,-0.9969320893287659,-2.101376533508301
1660273661831400200,1.247400146484375,1.5656476020812988,-0.9969320893287659,-2.101376533508301
1660273661833399600,1.249399658203125,1.585806131362915,-0.9920451641082764,-2.143526077270508
1660273661835399400,1.2513994140625,1.6255123615264893,-0.9816604256629944,-2.233323335647583
1660273661837399600,1.253399658203125,1.642616629600525,-0.9779952764511108,-2.2760839462280273
1660273661839399400,1.2553994140625,1.6847662925720215,-0.9645562171936035,-2.3597724437713623
1660273661841399600,1.257399658203125,1.7220290899276733,-0.9492846131324768,-2.445904493331909
1660273661843402500,1.259402587890625,1.7373007535934448,-0.940732479095459,-2.4856107234954834
1660273661845403000,1.26140283203125,1.7776178121566772,-0.9230173826217651,-2.56257963180542
1660273661847403300,1.2634033203125,1.814269781112671,-0.9034696817398071,-2.632218360900879
1660273661849403600,1.265403564453125,1.8307631015777588,-0.8900306820869446,-2.6670377254486084
1660273661851403800,1.26740380859375,1.86497163772583,-0.8619308471679688,-2.726902484893799
1660273661853404000,1.26940380859375,1.8991800546646118,-0.8210029006004333,-2.778215169906616
1660273661855404000,1.271404052734375,1.9138407707214355,-0.797789990901947,-2.8008172512054443
1660273661857403100,1.273403076171875,1.9468275308609009,-0.7440338730812073,-2.8405234813690186
1660273661859403300,1.2754033203125,1.976149082183838,-0.6798930168151855,-2.8747317790985107
1660273661861400600,1.277400634765625,2.006692409515381,-0.6035348773002625,-2.900388240814209
1660273661863400700,1.279400634765625,2.0195205211639404,-0.5638286471366882,-2.9126055240631104
1660273661865400600,1.281400634765625,2.0476202964782715,-0.47280970215797424,-2.933985710144043
1660273661867400700,1.283400634765625,2.060448408126831,-0.4294382631778717,-2.9443705081939697
1660273661869400300,1.285400390625,2.0806069374084473,-0.33536502718925476,-2.9602530002593994
1660273661871400200,1.287400146484375,2.1001546382904053,-0.2370157092809677,-2.970026731491089
1660273661873400300,1.289400390625,2.1068742275238037,-0.18875735998153687,-2.9743027687072754
1660273661875400200,1.291400146484375,2.1154263019561768,-0.08735372871160507,-2.9822440147399902
1660273661877400300,1.293400390625,2.1178698539733887,0.01160643994808197,-2.9828550815582275
1660273661879400400,1.295400390625,2.119091510772705,0.059864792972803116,-2.984076738357544
1660273661881400300,1.297400390625,2.1148154735565186,0.15515977144241333,-2.9749138355255127
1660273661883400400,1.299400390625,2.1062633991241455,0.24495697021484375,-2.9633073806762695
1660273661885400800,1.30140087890625,2.0983221530914307,0.2877175211906433,-2.9578094482421875
1660273661887400700,1.303400634765625,2.0818288326263428,0.36713001132011414,-2.936429262161255
1660273661889400800,1.30540087890625,2.0647244453430176,0.44165557622909546,-2.9126055240631104
1660273661891401000,1.30740087890625,2.0555615425109863,0.4758640229701996,-2.899777412414551
1660273661893400800,1.30940087890625,2.032959461212158,0.5338962078094482,-2.867401361465454
1660273661895401000,1.31140087890625,2.0134117603302,0.5772676467895508,-2.8344147205352783
1660273661897401000,1.313401123046875,2.001194477081299,0.5919284224510193,-2.814256191253662
1660273661899401000,1.31540087890625,1.9816468954086304,0.6120869517326355,-2.7757716178894043
1660273661901400000,1.317400146484375,1.9321668148040771,0.6188064813613892,-2.6847527027130127
1660273661903399200,1.319399169921875,1.9321668148040771,0.6188064813613892,-2.6847527027130127
1660273661905399300,1.3213994140625,1.9217820167541504,0.6139195561408997,-2.6597073078155518
1660273661907399200,1.323399169921875,1.8955148458480835,0.598647952079773,-2.607783794403076
1660273661909399300,1.3253994140625,1.881464958190918,0.5937610268592834,-2.5815165042877197
1660273661911399200,1.327399169921875,1.852143406867981,0.5723807215690613,-2.5222625732421875
1660273661913399000,1.32939892578125,1.8222110271453857,0.5522221922874451,-2.4642302989959717
1660273661915399000,1.33139892578125,1.8026633262634277,0.5406157374382019,-2.431854486465454
1660273661917399300,1.3333994140625,1.7654005289077759,0.5143485069274902,-2.375654935836792
1660273661919399200,1.335399169921875,1.7263051271438599,0.48808133602142334,-2.311514139175415
1660273661921400000,1.337400146484375,1.7067575454711914,0.475253164768219,-2.2791383266448975
1660273661923400200,1.339400146484375,1.6646077632904053,0.4392121136188507,-2.216830015182495
1660273661925400000,1.341400146484375,1.6175711154937744,0.40072759985923767,-2.1539108753204346
1660273661927400200,1.343400146484375,1.5937473773956299,0.37568211555480957,-2.122145891189575
1660273661929400300,1.345400390625,1.5442672967910767,0.32620203495025635,-2.0622811317443848
1660273661931400200,1.347400146484375,1.492343783378601,0.2687807083129883,-2.0005836486816406
1660273661933400300,1.349400390625,1.4654656648635864,0.23884831368923187,-1.9694294929504395
1660273661935400200,1.351400146484375,1.4129313230514526,0.17287486791610718,-1.909564733505249
1660273661937400300,1.353400390625,1.359175205230713,0.1007927656173706,-1.8490891456604004
1660273661939400200,1.355400146484375,1.3329079151153564,0.06108652427792549,-1.8185458183288574
1660273661941399300,1.3573994140625,1.1557570695877075,-0.252287358045578,-1.5992451906204224
1660273661943398400,1.3593984375,1.1557570695877075,-0.252287358045578,-1.5992451906204224
1660273661945397200,1.361397216796875,1.1557570695877075,-0.252287358045578,-1.5992451906204224
1660273661947396400,1.363396240234375,1.1557570695877075,-0.252287358045578,-1.5992451906204224
1660273661949396500,1.365396484375,1.130711555480957,-0.3543018400669098,-1.5344934463500977
1660273661951396400,1.367396240234375,1.0848966836929321,-0.4050036668777466,-1.5027284622192383
1660273661953396500,1.369396484375,1.043968677520752,-0.5106833577156067,-1.4398094415664673
1660273661955396400,1.371396240234375,1.024420976638794,-0.5656611919403076,-1.4098769426345825
1660273661957396200,1.373396240234375,0.9834930300712585,-0.6725626587867737,-1.3463469743728638
1660273661959396400,1.375396240234375,0.9468411207199097,-0.778853178024292,-1.284038782119751
1660273661961397000,1.37739697265625,0.9150761365890503,-0.8808676600456238,-1.226617455482483
1660273661963398000,1.37939794921875,0.8991936445236206,-0.9297369122505188,-1.197906732559204
1660273661965398000,1.38139794921875,0.8686503767967224,-1.0170906782150269,-1.1423180103302002
1660273661967398000,1.38339794921875,0.856433093547821,-1.0616837739944458,-1.1142182350158691
1660273661969398000,1.38539794921875,0.8307767510414124,-1.1349875926971436,-1.0677924156188965
1660273661971398000,1.38739794921875,0.808174729347229,-1.2021827697753906,-1.0213667154312134
1660273661973398000,1.38939794921875,0.7953465580940247,-1.2327260971069336,-1.0012081861495972
1660273661975398100,1.391398193359375,0.7751879692077637,-1.2858713865280151,-0.9608910083770752
1660273661977398000,1.39339794921875,0.7544185519218445,-1.3274102210998535,-0.930347740650177
1660273661979398100,1.395398193359375,0.7434229850769043,-1.348179578781128,-0.9162978529930115
1660273661981397200,1.397397216796875,0.6725626587867737,-1.4288138151168823,-0.8429940342903137
1660273661983396400,1.399396240234375,0.6725626587867737,-1.4288138151168823,-0.8429940342903137
1660273661985395500,1.4013955078125,0.6725626587867737,-1.4288138151168823,-0.8429940342903137
1660273661987394600,1.40339453125,0.6725626587867737,-1.4288138151168823,-0.8429940342903137
1660273661989394700,1.405394775390625,0.6640105247497559,-1.4275920391082764,-0.8393288254737854
1660273661991394800,1.407394775390625,0.6548475623130798,-1.4282029867172241,-0.8356636762619019
1660273661993394700,1.409394775390625,0.6359107494354248,-1.4227051734924316,-0.826500654220581
1660273661995394800,1.411394775390625,0.616973876953125,-1.4049900770187378,-0.8222246170043945
1660273661997394700,1.413394775390625,0.607200026512146,-1.395827054977417,-0.817337691783905
1660273661999394800,1.415394775390625,0.5839871764183044,-1.368949055671692,-0.8118399381637573
1660273662001395700,1.417395751953125,0.5626068711280823,-1.3377948999404907,-0.8057312369346619
1660273662003396600,1.419396728515625,0.5467243790626526,-1.3213015794754028,-0.799011766910553
1660273662005397500,1.4213974609375,0.5229006409645081,-1.2791517972946167,-0.7947356700897217
1660273662007398400,1.4233984375,0.4948008358478546,-1.23394775390625,-0.7898487448692322
1660273662009398300,1.425398193359375,0.4801400899887085,-1.2101240158081055,-0.7867944240570068
1660273662011398400,1.4273984375,0.4508185386657715,-1.1624765396118164,-0.7800748944282532
1660273662013398800,1.429398681640625,0.41722095012664795,-1.1129964590072632,-0.7757988572120667
1660273662015398700,1.431398681640625,0.40256020426750183,-1.0903944969177246,-0.7745771408081055
1660273662017399300,1.4333994140625,0.3683517575263977,-1.047023057937622,-0.7672467231750488
1660273662019399200,1.435399169921875,0.33597588539123535,-1.0030407905578613,-0.7580837607383728
1660273662021398300,1.437398193359375,0.20341812074184418,-0.8625417351722717,-0.6969972252845764
1660273662023397400,1.4393974609375,0.18875735998153687,-0.8533787727355957,-0.6841690540313721
1660273662025396700,1.441396728515625,0.17470745742321014,-0.8436049222946167,-0.6725626587867737
1660273662027395800,1.443395751953125,0.17470745742321014,-0.8436049222946167,-0.6725626587867737
1660273662029395000,1.44539501953125,0.17470745742321014,-0.8436049222946167,-0.6725626587867737
1660273662031394000,1.44739404296875,0.17470745742321014,-0.8436049222946167,-0.6725626587867737
1660273662033394000,1.449393798828125,0.1612684279680252,-0.8338310718536377,-0.6585127115249634
1660273662035393800,1.451393798828125,0.13744467496871948,-0.826500654220581,-0.6298020482063293
1660273662037394000,1.453393798828125,0.11850785464048386,-0.8246681094169617,-0.5955936312675476
1660273662039393800,1.455393798828125,0.10995574295520782,-0.827111542224884,-0.5791002511978149
1660273662041394000,1.457393798828125,0.09224065393209457,-0.836885392665863,-0.543059229850769
1660273662043393800,1.459393798828125,0.07757988572120667,-0.8558222055435181,-0.5064072608947754
1660273662045394000,1.461393798828125,0.07147123664617538,-0.8655960559844971,-0.48685958981513977
1660273662047393800,1.463393798828125,0.06169738993048668,-0.8906415104866028,-0.4495968222618103
1660273662049394200,1.465394287109375,0.05314527451992035,-0.9181304574012756,-0.40683624148368835
1660273662051394300,1.467394287109375,0.04764748737215996,-0.9346238374710083,-0.3842342495918274
1660273662053394400,1.46939453125,0.04214970022439957,-0.9712757468223572,-0.342695415019989
1660273662055394600,1.47139453125,0.036041051149368286,-1.0140362977981567,-0.3017674386501312
1660273662057394700,1.473394775390625,0.03237585723400116,-1.043968677520752,-0.2785545587539673
1660273662059394800,1.475394775390625,0.031154127791523933,-1.0934487581253052,-0.23457226157188416
1660273662061392400,1.477392333984375,0.02626720629632473,-1.1832460165023804,-0.1716531366109848
1660273662063392300,1.479392333984375,0.02626720629632473,-1.1832460165023804,-0.1716531366109848
1660273662065392400,1.481392333984375,0.025045474991202354,-1.2498302459716797,-0.13316862285137177
1660273662067392300,1.483392333984375,0.024434609338641167,-1.3176363706588745,-0.09162978827953339
1660273662069392400,1.485392333984375,0.021991148591041565,-1.3542882204055786,-0.07513642311096191
1660273662071392300,1.487392333984375,0.024434609338641167,-1.4245377779006958,-0.03848451003432274
1660273662073392400,1.489392333984375,0.025656340643763542,-1.4899003505706787,-0.006108652334660292
1660273662075392300,1.491392333984375,0.02626720629632473,-1.5241087675094604,0.009773843921720982
1660273662077392400,1.493392333984375,0.02687807008624077,-1.5925257205963135,0.042760565876960754
1660273662079392300,1.495392333984375,0.025656340643763542,-1.6572774648666382,0.07513642311096191
1660273662081392400,1.497392333984375,0.025656340643763542,-1.6865988969802856,0.08857546001672745
1660273662083392500,1.499392578125,0.025045474991202354,-1.740355134010315,0.11484266817569733
1660273662085392400,1.501392333984375,0.021991148591041565,-1.7922786474227905,0.13866640627384186
1660273662087392500,1.503392578125,0.02076941914856434,-1.8124371767044067,0.14905111491680145
1660273662089392600,1.505392578125,0.018325956538319588,-1.8490891456604004,0.17043140530586243
1660273662091392500,1.507392578125,0.013439035043120384,-1.8808541297912598,0.18631389737129211
1660273662093392600,1.509392578125,0.010995574295520782,-1.8918496370315552,0.19303341209888458
1660273662095392500,1.511392578125,0.006108652334660292,-1.9101755619049072,0.2028072625398636
1660273662097392000,1.51339208984375,0.0006108652451075613,-1.9230037927627563,0.20891591906547546
1660273662099392000,1.51539208984375,-0.00366519158706069,-1.9242255687713623,0.2119702398777008
1660273662101391000,1.51739111328125,-0.024434609338641167,-1.9309450387954712,0.21013765037059784
1660273662103390500,1.519390380859375,-0.024434609338641167,-1.9309450387954712,0.21013765037059784
1660273662105390300,1.521390380859375,-0.03237585723400116,-1.9260581731796265,0.21013765037059784
1660273662107390500,1.523390380859375,-0.04153883829712868,-1.9162843227386475,0.20463985204696655
1660273662109390300,1.525390380859375,-0.056810468435287476,-1.8973474502563477,0.19608774781227112
1660273662111390200,1.52739013671875,-0.06291911751031876,-1.8869627714157104,0.1918116807937622
1660273662113390300,1.529390380859375,-0.0757472887635231,-1.8588629961013794,0.17898350954055786
1660273662115390200,1.53139013671875,-0.08735372871160507,-1.8222110271453857,0.16249015927314758
1660273662117390000,1.53339013671875,-0.09224065393209457,-1.80510675907135,0.15454891324043274
1660273662119390200,1.53539013671875,-0.10201449692249298,-1.7623462677001953,0.13377949595451355
1660273662121391000,1.53739111328125,-0.10812314599752426,-1.7153096199035645,0.10873401165008545
1660273662123391000,1.539390869140625,-0.11056660860776901,-1.6896532773971558,0.09162978827953339
1660273662125390600,1.541390625,-0.11545353382825851,-1.6389514207839966,0.05925392732024193
1660273662127390700,1.543390625,-0.11972958594560623,-1.5864170789718628,0.02382374368607998
1660273662129390600,1.545390625,-0.11850785464048386,-1.5595389604568481,0.004886921960860491
1660273662131390700,1.547390625,-0.11728613078594208,-1.5076154470443726,-0.039095375686883926
1660273662133390600,1.549390625,-0.11789698898792267,-1.4550809860229492,-0.08491026610136032
1660273662135390700,1.551390625,-0.11423180252313614,-1.4288138151168823,-0.10690141469240189
1660273662137390800,1.553390869140625,-0.11178833991289139,-1.3738359212875366,-0.152105450630188
1660273662139390700,1.555390625,-0.1007927656173706,-1.3213015794754028,-0.19547687470912933
1660273662141389800,1.557389892578125,-0.06841690838336945,-1.129489779472351,-0.3597996234893799
1660273662143389000,1.559388916015625,-0.06841690838336945,-1.129489779472351,-0.3597996234893799
1660273662145388000,1.561387939453125,-0.06841690838336945,-1.129489779472351,-0.3597996234893799
1660273662147387100,1.56338720703125,-0.06841690838336945,-1.129489779472351,-0.3597996234893799
1660273662149387300,1.56538720703125,-0.06352998316287994,-1.1032226085662842,-0.38179078698158264
1660273662151387100,1.56738720703125,-0.05314527451992035,-1.0519099235534668,-0.42271876335144043
1660273662153387000,1.569386962890625,-0.048258353024721146,-1.0219775438308716,-0.44654250144958496
1660273662155387400,1.571387451171875,-0.039095375686883926,-0.970054030418396,-0.48808133602142334
1660273662157387800,1.5733876953125,-0.030543262138962746,-0.921795666217804,-0.5302310585975647
1660273662159387600,1.5753876953125,-0.025656340643763542,-0.8979719281196594,-0.5516113042831421
1660273662161388800,1.577388916015625,-0.015882495790719986,-0.8509352803230286,-0.5925393104553223
1660273662163389400,1.579389404296875,-0.00366519158706069,-0.807563841342926,-0.6310238242149353
1660273662165389600,1.5813896484375,0.0024434609804302454,-0.7874053120613098,-0.6499606370925903
1660273662167389700,1.5833896484375,0.01466076634824276,-0.7470881938934326,-0.6896668672561646
1660273662169388800,1.585388916015625,0.028099801391363144,-0.7110471725463867,-0.7299839854240417
1660273662171388700,1.587388671875,0.03726277872920036,-0.6951646208763123,-0.7513642311096191
1660273662173388800,1.589388916015625,0.05192354694008827,-0.6670648455619812,-0.788627028465271
1660273662175389200,1.59138916015625,0.06719517707824707,-0.6389650702476501,-0.8295549750328064
1660273662177389000,1.59338916015625,0.07330382615327835,-0.6255260109901428,-0.8460483551025391
1660273662179389200,1.59538916015625,0.08918632566928864,-0.598647952079773,-0.8845328688621521
1660273662181388300,1.59738818359375,0.1270599663257599,-0.5051855444908142,-1.0030407905578613
1660273662183387400,1.599387451171875,0.1270599663257599,-0.5051855444908142,-1.0030407905578613
1660273662185387000,1.601386962890625,0.1270599663257599,-0.5051855444908142,-1.0030407905578613
1660273662187386000,1.60338623046875,0.1270599663257599,-0.5051855444908142,-1.0030407905578613
1660273662189386000,1.605385986328125,0.1319468915462494,-0.49235737323760986,-1.017701506614685
1660273662191386000,1.60738623046875,0.13927727937698364,-0.4605923891067505,-1.0464121103286743
1660273662193386000,1.609385986328125,0.14477506279945374,-0.43127086758613586,-1.0677924156188965
1660273662195385600,1.611385498046875,0.1459967941045761,-0.41172316670417786,-1.083064079284668
1660273662197385700,1.6133857421875,0.14966198801994324,-0.37568211555480957,-1.1068878173828125
1660273662199385600,1.615385498046875,0.15027284622192383,-0.34025195240974426,-1.129489779472351
1660273662201386200,1.61738623046875,0.1466076523065567,-0.3237585723400116,-1.1398745775222778
1660273662203387100,1.61938720703125,0.14233160018920898,-0.29138273000717163,-1.1594222784042358
1660273662205388000,1.621387939453125,0.1362229436635971,-0.25595253705978394,-1.1789699792861938
1660273662207389000,1.623388916015625,0.1319468915462494,-0.24129177629947662,-1.187522053718567
1660273662209388800,1.625388916015625,0.11911872029304504,-0.20952677726745605,-1.2040153741836548
1660273662211389000,1.627388916015625,0.10812314599752426,-0.17837265133857727,-1.2205088138580322
1660273662213389000,1.62938916015625,0.09957103431224823,-0.1612684279680252,-1.228450059890747
1660273662215389000,1.631388916015625,0.0861319974064827,-0.1258382350206375,-1.2412781715393066
1660273662217389000,1.63338916015625,0.07635815441608429,-0.08918632566928864,-1.2577714920043945
1660273662219389000,1.635388916015625,0.07208210229873657,-0.06902777403593063,-1.2663236856460571
1660273662221388000,1.637387939453125,0.039095375686883926,0.10201449692249298,-1.3115277290344238
1660273662223387100,1.63938720703125,0.039095375686883926,0.10201449692249298,-1.3115277290344238
1660273662225386200,1.64138623046875,0.036651913076639175,0.12095131725072861,-1.3158037662506104
1660273662227385300,1.64338525390625,0.036651913076639175,0.12095131725072861,-1.3158037662506104
1660273662229385500,1.645385498046875,0.03176499158143997,0.13927727937698364,-1.3170254230499268
1660273662231384600,1.647384521484375,0.03176499158143997,0.13927727937698364,-1.3170254230499268
1660273662233384400,1.649384521484375,0.030543262138962746,0.16065755486488342,-1.3182471990585327
1660273662235384000,1.651384033203125,0.02626720629632473,0.19975294172763824,-1.320690631866455
1660273662237384200,1.65338427734375,0.025045474991202354,0.22113321721553802,-1.3194689750671387
1660273662239384000,1.655384033203125,0.021991148591041565,0.26083946228027344,-1.318858027458191
1660273662241384200,1.65738427734375,0.01771509274840355,0.3017674386501312,-1.313360333442688
1660273662243382000,1.659382080078125,0.01710422709584236,0.32009339332580566,-1.309084177017212
1660273662245382100,1.661382080078125,0.015271631069481373,0.3597996234893799,-1.3048081398010254
1660273662247382000,1.663382080078125,0.01466076634824276,0.39706242084503174,-1.29381263256073
1660273662249382100,1.665382080078125,0.013439035043120384,0.4147774875164032,-1.2907582521438599
1660273662251382000,1.667382080078125,0.013439035043120384,0.4495968222618103,-1.2773191928863525
1660273662253382000,1.6693818359375,0.01038470957428217,0.47830748558044434,-1.2614367008209229
1660273662255381500,1.671381591796875,0.01038470957428217,0.494189977645874,-1.2553280591964722
1660273662257381400,1.67338134765625,0.009162978269159794,0.5192354321479797,-1.2376129627227783
1660273662259381500,1.675381591796875,0.007941247895359993,0.5455026626586914,-1.214400053024292
1660273662261378600,1.677378662109375,0.006719517521560192,0.5687155723571777,-1.187522053718567
1660273662263378700,1.679378662109375,0.004886921960860491,0.5791002511978149,-1.1728612184524536
1660273662265378600,1.681378662109375,0.001832595793530345,0.598647952079773,-1.1429288387298584
1660273662267378400,1.68337841796875,0.001832595793530345,0.607200026512146,-1.1270463466644287
1660273662269378300,1.68537841796875,0.0012217304902151227,0.6188064813613892,-1.0897835493087769
1660273662271378200,1.687378173828125,0.0006108652451075613,0.6218608021736145,-1.056796908378601
1660273662273378300,1.68937841796875,0.001832595793530345,0.6224716901779175,-1.036027431488037
1660273662275377700,1.691377685546875,0.00733038317412138,0.6151412725448608,-0.9999864101409912
1660273662277377500,1.69337744140625,0.01466076634824276,0.5962044596672058,-0.9645562171936035
1660273662279377400,1.69537744140625,0.019547687843441963,0.5827654600143433,-0.950506329536438
1660273662281377500,1.69737744140625,0.030543262138962746,0.5497786998748779,-0.9162978529930115
1660273662283377400,1.69937744140625,0.04337143152952194,0.513737678527832,-0.8918632864952087
1660273662285377500,1.70137744140625,0.05009094998240471,0.4917465150356293,-0.8784242272377014
1660273662287377400,1.70337744140625,0.06780604273080826,0.45204028487205505,-0.8509352803230286
1660273662289377500,1.70537744140625,0.08307767659425735,0.40683624148368835,-0.8289441466331482
1660273662291377400,1.70737744140625,0.09529497474431992,0.38240164518356323,-0.8191702961921692
1660273662293377500,1.70937744140625,0.11056660860776901,0.33108896017074585,-0.7947356700897217
1660273662295377400,1.71137744140625,0.12400564551353455,0.27550023794174194,-0.779464066028595
1660273662297377500,1.71337744140625,0.1313360333442688,0.24556782841682434,-0.7727445363998413
1660273662299377400,1.71537744140625,0.14416420459747314,0.18448130786418915,-0.759305477142334
1660273662301376500,1.71737646484375,0.15760323405265808,0.04764748737215996,-0.7336491346359253
1660273662303375600,1.719375732421875,0.15760323405265808,0.04764748737215996,-0.7336491346359253
1660273662305375700,1.721375732421875,0.15882496535778046,0.013439035043120384,-0.7269296646118164
1660273662307375600,1.723375732421875,0.1612684279680252,-0.05925392732024193,-0.7153232097625732
1660273662309375700,1.725375732421875,0.16065755486488342,-0.0959058403968811,-0.7073819637298584
1660273662311375600,1.727375732421875,0.16065755486488342,-0.16493362188339233,-0.6939429044723511
1660273662313375700,1.729375732421875,0.16065755486488342,-0.22479841113090515,-0.675616979598999
1660273662315375600,1.731375732421875,0.1612684279680252,-0.25106561183929443,-0.6664539575576782
1660273662317375700,1.733375732421875,0.16065755486488342,-0.2993239760398865,-0.6481280326843262
1660273662319376000,1.7353759765625,0.1618792861700058,-0.3390302062034607,-0.627358615398407
1660273662321376800,1.737376708984375,0.1612684279680252,-0.35674530267715454,-0.6157521605491638
1660273662323376600,1.739376708984375,0.16432274878025055,-0.3878994286060333,-0.588874101638794
1660273662325376800,1.741376708984375,0.16249015927314758,-0.4153883755207062,-0.5613851547241211
1660273662327377000,1.743376953125,0.16310101747512817,-0.4239404797554016,-0.5479460954666138
1660273662329376800,1.745376708984375,0.16432274878025055,-0.4398229718208313,-0.513737678527832
1660273662331377000,1.747376953125,0.16249015927314758,-0.4489859640598297,-0.4801400899887085
1660273662333376800,1.749376708984375,0.1569923609495163,-0.45265114307403564,-0.4612032473087311
1660273662335377200,1.751377197265625,0.1514945775270462,-0.45326200127601624,-0.42271876335144043
1660273662337377000,1.753376953125,0.13866640627384186,-0.4434881806373596,-0.384845107793808
1660273662339377200,1.755377197265625,0.13011430203914642,-0.43737950921058655,-0.36224308609962463
1660273662341376300,1.757376220703125,0.02626720629632473,-0.3384193480014801,-0.18570303916931152
1660273662343375400,1.759375244140625,0.02626720629632473,-0.3384193480014801,-0.18570303916931152
1660273662345374500,1.76137451171875,0.02626720629632473,-0.3384193480014801,-0.18570303916931152
1660273662347373600,1.76337353515625,0.006108652334660292,-0.31581732630729675,-0.15454891324043274
1660273662349373400,1.76537353515625,-0.01710422709584236,-0.2926044464111328,-0.12461651116609573
1660273662351373600,1.76737353515625,-0.0403171069920063,-0.26572638750076294,-0.09040805697441101
1660273662353373400,1.76937353515625,-0.09224065393209457,-0.20586158335208893,-0.021991148591041565
1660273662355373300,1.771373291015625,-0.14966198801994324,-0.13377949595451355,0.04886921867728233
1660273662357373400,1.77337353515625,-0.182648703455925,-0.09957103431224823,0.0861319974064827
1660273662359373300,1.775373291015625,-0.251676470041275,-0.01466076634824276,0.16065755486488342
1660273662361374200,1.777374267578125,-0.32559117674827576,0.07269296050071716,0.2382374405860901
1660273662363375000,1.779375,-0.3695734739303589,0.11789698898792267,0.2773328125476837
1660273662365374700,1.781374755859375,-0.4544837474822998,0.21319197118282318,0.3579670190811157
1660273662367374800,1.783374755859375,-0.5485569834709167,0.3090978264808655,0.43249258399009705
1660273662369374700,1.785374755859375,-0.5955936312675476,0.35552358627319336,0.4691445231437683
1660273662371374800,1.787374755859375,-0.6933320760726929,0.44593164324760437,0.5467243790626526
1660273662373375000,1.789375,-0.7941248416900635,0.5314527750015259,0.6188064813613892
1660273662375374800,1.791374755859375,-0.8423831462860107,0.5723807215690613,0.6517932415008545
1660273662377375500,1.79337548828125,-0.9395107626914978,0.6505714654922485,0.7195992469787598
1660273662379375000,1.795375,-1.034194827079773,0.7226535677909851,0.7812966704368591
1660273662381374200,1.797374267578125,-1.3170254230499268,0.8973610401153564,0.9743300676345825
1660273662383373300,1.799373291015625,-1.3170254230499268,0.8973610401153564,0.9743300676345825
1660273662385372400,1.801372314453125,-1.3170254230499268,0.8973610401153564,0.9743300676345825
1660273662387371300,1.803371337890625,-1.3170254230499268,0.8973610401153564,0.9743300676345825
1660273662389371400,1.805371337890625,-1.3506230115890503,0.9132435321807861,0.9993755221366882
1660273662391371500,1.80737158203125,-1.4104878902435303,0.931569516658783,1.045190453529358
1660273662393371100,1.80937109375,-1.4367550611495972,0.9340129494667053,1.0653489828109741
1660273662395371300,1.811371337890625,-1.482569932937622,0.9254608750343323,1.1087204217910767
1660273662397371400,1.813371337890625,-1.522887110710144,0.9046914577484131,1.150259256362915
1660273662399371300,1.815371337890625,-1.539380431175232,0.8912523984909058,1.169806957244873
1660273662401372400,1.817372314453125,-1.5668693780899048,0.8552113175392151,1.2064588069915771
1660273662403373600,1.81937353515625,-1.5919147729873657,0.8112290501594543,1.2443325519561768
1660273662405374500,1.82137451171875,-1.6010777950286865,0.789237916469574,1.2583824396133423
1660273662407375000,1.823375,-1.613295078277588,0.7287622094154358,1.2944234609603882
1660273662409375200,1.825375244140625,-1.6206254959106445,0.6640105247497559,1.3249666690826416
1660273662411375000,1.827375,-1.624901533126831,0.6310238242149353,1.340238332748413
1660273662413375200,1.829375244140625,-1.6291775703430176,0.5571091175079346,1.3683381080627441
1660273662415375400,1.831375244140625,-1.6310101747512817,0.4801400899887085,1.397048830986023
1660273662417375200,1.833375244140625,-1.6316211223602295,0.4392121136188507,1.4172073602676392
1660273662419375400,1.835375244140625,-1.6371188163757324,0.35735616087913513,1.4404202699661255
1660273662421374500,1.83737451171875,-1.6994271278381348,0.0403171069920063,1.5503759384155273
1660273662423373600,1.83937353515625,-1.7092009782791138,0.006108652334660292,1.5638149976730347
1660273662425373000,1.841373046875,-1.720807433128357,-0.02626720629632473,1.5766432285308838
1660273662427372000,1.8433720703125,-1.720807433128357,-0.02626720629632473,1.5766432285308838
1660273662429371000,1.845370849609375,-1.720807433128357,-0.02626720629632473,1.5766432285308838
1660273662431371000,1.84737109375,-1.720807433128357,-0.02626720629632473,1.5766432285308838
1660273662433371000,1.849370849609375,-1.7354681491851807,-0.0861319974064827,1.6047430038452148
1660273662435371000,1.85137109375,-1.7611244916915894,-0.11423180252313614,1.6181820631027222
1660273662437370400,1.853370361328125,-1.7941112518310547,-0.15271630883216858,1.644449234008789
1660273662439370800,1.855370849609375,-1.8216001987457275,-0.18448130786418915,1.6731599569320679
1660273662441371000,1.857370849609375,-1.835650086402893,-0.1973094791173935,1.6847662925720215
1660273662443370800,1.859370849609375,-1.8655824661254883,-0.2119702398777008,1.709811806678772
1660273662445371000,1.861370849609375,-1.880243182182312,-0.21807889640331268,1.7244726419448853
1660273662447370800,1.863370849609375,-1.9168951511383057,-0.21930062770843506,1.7525724172592163
1660273662449371000,1.865370849609375,-1.9511035680770874,-0.21013765037059784,1.7751743793487549
1660273662451370800,1.867370849609375,-1.9730947017669678,-0.2028072625398636,1.7861700057983398
1660273662453371000,1.869370849609375,-2.012190103530884,-0.18448130786418915,1.813048005104065
1660273662455370800,1.871370849609375,-2.049452781677246,-0.1563815027475357,1.8387043476104736
1660273662457370600,1.87337060546875,-2.071444034576416,-0.13927727937698364,1.8509217500686646
1660273662459370500,1.87537060546875,-2.112982988357544,-0.10323622822761536,1.8698585033416748
1660273662461367800,1.877367919921875,-2.174680233001709,-0.04398229718208313,1.8967366218566895
1660273662463367700,1.87936767578125,-2.174680233001709,-0.04398229718208313,1.8967366218566895
1660273662465370400,1.881370361328125,-2.216830015182495,-0.004886921960860491,1.9083430767059326
1660273662467370200,1.883370361328125,-2.2565362453460693,0.036651913076639175,1.9187277555465698
1660273662469370000,1.8853701171875,-2.2760839462280273,0.05619960278272629,1.9217820167541504
1660273662471370500,1.88737060546875,-2.3133466243743896,0.09773843735456467,1.9223929643630981
1660273662473370600,1.88937060546875,-2.3518311977386475,0.13561208546161652,1.920560359954834
1660273662475370500,1.89137060546875,-2.3689353466033936,0.1563815027475357,1.919338583946228
1660273662477370600,1.89337060546875,-2.409252643585205,0.19608774781227112,1.9144517183303833
1660273662479370500,1.89537060546875,-2.442239284515381,0.24007004499435425,1.9071213006973267
1660273662481370600,1.89737060546875,-2.4587326049804688,0.26083946228027344,1.9040669202804565
1660273662483370500,1.89937060546875,-2.49294114112854,0.30604347586631775,1.8936822414398193
1660273662485370600,1.90137060546875,-2.5247061252593994,0.34758231043815613,1.8832975625991821
1660273662487370500,1.90337060546875,-2.538145065307617,0.37140607833862305,1.874745488166809
1660273662489371100,1.90537109375,-2.5638015270233154,0.4141666293144226,1.8625280857086182
1660273662491371300,1.907371337890625,-2.5864033699035645,0.45631635189056396,1.8503108024597168
1660273662493371100,1.90937109375,-2.598620653152466,0.4764748811721802,1.8411478996276855
1660273662495371000,1.91137109375,-2.615725040435791,0.5143485069274902,1.8264870643615723
1660273662497371100,1.91337109375,-2.629774808883667,0.5461135506629944,1.8093829154968262
1660273662499371000,1.91537109375,-2.6371052265167236,0.5632177591323853,1.797776460647583
1660273662501370400,1.917370361328125,-2.6615397930145264,0.6334672570228577,1.7513506412506104
1660273662503369500,1.919369384765625,-2.6615397930145264,0.6334672570228577,1.7513506412506104
1660273662505369300,1.921369384765625,-2.6615397930145264,0.6334672570228577,1.7513506412506104
1660273662507369200,1.923369140625,-2.6676485538482666,0.6548475623130798,1.7318029403686523
1660273662509369300,1.925369384765625,-2.6737570762634277,0.6737843751907349,1.7140878438949585
1660273662511369200,1.927369140625,-2.6731462478637695,0.6811147332191467,1.703092336654663
1660273662513369300,1.929369384765625,-2.6762006282806396,0.6908885836601257,1.6841554641723633
1660273662515369200,1.931369140625,-2.6762006282806396,0.7018841505050659,1.6670511960983276
1660273662517369300,1.933369384765625,-2.6749789714813232,0.7049384713172913,1.6566665172576904
1660273662519369200,1.935369140625,-2.6755897998809814,0.7116580009460449,1.6389514207839966
1660273662521370000,1.9373701171875,-2.669481039047241,0.7165449261665344,1.6206254959106445
1660273662523370200,1.939370361328125,-2.671924591064453,0.7183775305747986,1.6126842498779297
1660273662525369000,1.941369140625,-2.6639833450317383,0.7202101349830627,1.5992451906204224
1660273662527369200,1.943369140625,-2.6584856510162354,0.7202101349830627,1.587027907371521
1660273662529369000,1.945369140625,-2.6554312705993652,0.7183775305747986,1.5821410417556763
1660273662531369000,1.947368896484375,-2.648711681365967,0.7171558141708374,1.5766432285308838
1660273662533368800,1.949368896484375,-2.6389379501342773,0.7104362845420837,1.5729780197143555
1660273662535369000,1.951368896484375,-2.6316075325012207,0.7079927921295166,1.5711454153060913
1660273662537368800,1.953368896484375,-2.6224443912506104,0.6982190012931824,1.5748106241226196
1660273662539369000,1.955368896484375,-2.6083946228027344,0.6890559792518616,1.5778648853302002
1660273662541368000,1.9573681640625,-2.5442538261413574,0.6328563690185547,1.6291775703430176
1660273662543367200,1.9593671875,-2.5442538261413574,0.6328563690185547,1.6291775703430176
1660273662545366300,1.9613662109375,-2.5442538261413574,0.6328563690185547,1.6291775703430176
1660273662547365400,1.963365478515625,-2.5442538261413574,0.6328563690185547,1.6291775703430176
1660273662549364700,1.96536474609375,-2.535090684890747,0.6243042945861816,1.6395623683929443
1660273662551364900,1.96736474609375,-2.5143213272094727,0.6047565937042236,1.6646077632904053
1660273662553364700,1.96936474609375,-2.5027148723602295,0.5931501388549805,1.6798794269561768
1660273662555364400,1.9713642578125,-2.4807238578796387,0.5699372887611389,1.712866187095642
1660273662557364500,1.973364501953125,-2.4544565677642822,0.5448917746543884,1.7458528280258179
1660273662559364400,1.9753642578125,-2.440406560897827,0.5320636034011841,1.7660114765167236
1660273662561365000,1.977364990234375,-2.4165828227996826,0.4996877610683441,1.803274154663086
1660273662563366000,1.979365966796875,-2.389704942703247,0.46547931432724,1.8411478996276855
1660273662565365800,1.98136572265625,-2.375654935836792,0.44837507605552673,1.860695481300354
1660273662567366000,1.983365966796875,-2.348165988922119,0.40683624148368835,1.901012659072876
1660273662569365800,1.98536572265625,-2.317622661590576,0.36102136969566345,1.9333884716033936
1660273662571366000,1.987365966796875,-2.3017401695251465,0.3384193480014801,1.9541579484939575
1660273662573365500,1.989365478515625,-2.2730295658111572,0.28588494658470154,1.9908097982406616
1660273662575365000,1.991365234375,-2.244929790496826,0.23396138846874237,2.0195205211639404
1660273662577365200,1.993365234375,-2.2314908504486084,0.20891591906547546,2.0390682220458984
1660273662579365000,1.995365234375,-2.2046127319335938,0.152105450630188,2.0665571689605713
1660273662581364200,1.9973642578125,-2.1368067264556885,-0.05375614017248154,2.157576084136963
1660273662583363300,1.99936328125,-2.1368067264556885,-0.05375614017248154,2.157576084136963
1660273662585362400,2.001362548828125,-2.1282544136047363,-0.08368854224681854,2.1679606437683105
1660273662587361500,2.003361572265625,-2.1282544136047363,-0.08368854224681854,2.1679606437683105
1660273662589361400,2.005361328125,-2.1282544136047363,-0.08368854224681854,2.1679606437683105
1660273662591361500,2.007361572265625,-2.1148154735565186,-0.1411098688840866,2.1868975162506104
1660273662593361400,2.009361328125,-2.102598190307617,-0.1966986060142517,2.2015583515167236
1660273662595361500,2.011361572265625,-2.094046115875244,-0.22479841113090515,2.2094995975494385
1660273662597361400,2.013361328125,-2.079385280609131,-0.2742784917354584,2.2204952239990234
1660273662599361500,2.015361572265625,-2.0665571689605713,-0.3219259977340698,2.2290472984313965
1660273662601362400,2.017362548828125,-2.0610592365264893,-0.3439171314239502,2.233323335647583
1660273662603363300,2.01936328125,-2.0427334308624268,-0.3836233615875244,2.233934164047241
1660273662605364200,2.0213642578125,-2.02929425239563,-0.42088615894317627,2.230268955230713
1660273662607365000,2.023365234375,-2.0176877975463867,-0.44165557622909546,2.2296581268310547
1660273662609365200,2.025365234375,-1.9987510442733765,-0.47280970215797424,2.22477126121521
1660273662611365000,2.027365234375,-1.977981686592102,-0.5009095072746277,2.216219186782837
1660273662613365000,2.029364990234375,-1.9688186645507812,-0.5112941861152649,2.207667112350464
1660273662615365000,2.031365234375,-1.9480493068695068,-0.5351179838180542,2.194838762283325
1660273662617365200,2.033365234375,-1.9242255687713623,-0.5522221922874451,2.1795670986175537
1660273662619365000,2.035365234375,-1.9083430767059326,-0.5589417219161987,2.1697933673858643
1660273662621364500,2.037364501953125,-1.7745635509490967,-0.5955936312675476,2.0702223777770996
1660273662623363600,2.039363525390625,-1.7745635509490967,-0.5955936312675476,2.0702223777770996
1660273662625362700,2.04136279296875,-1.7568484544754028,-0.5968153476715088,2.0561723709106445
1660273662627362000,2.043362060546875,-1.7568484544754028,-0.5968153476715088,2.0561723709106445
1660273662629361200,2.045361083984375,-1.739133358001709,-0.6017022728919983,2.043955087661743
1660273662631360300,2.0473603515625,-1.739133358001709,-0.6017022728919983,2.043955087661743
1660273662633360600,2.049360595703125,-1.7165313959121704,-0.6023131608963013,2.02929425239563
1660273662635361300,2.051361328125,-1.674992561340332,-0.6065891981124878,2.0054705142974854
1660273662637361400,2.053361328125,-1.6499470472335815,-0.6053674817085266,1.9920315742492676
1660273662639361300,2.055361328125,-1.5986343622207642,-0.607200026512146,1.9675970077514648
1660273662641360400,2.0573603515625,-1.5436564683914185,-0.6114761233329773,1.9431623220443726
1660273662643360500,2.059360595703125,-1.5161675214767456,-0.6114761233329773,1.929112434387207
1660273662645360400,2.0613603515625,-1.4508049488067627,-0.6120869517326355,1.9058995246887207
1660273662647358000,2.06335791015625,-1.3842206001281738,-0.6151412725448608,1.882686734199524
1660273662649358000,2.065358154296875,-1.351233959197998,-0.6145304441452026,1.8735237121582031
1660273662651358000,2.06735791015625,-1.2791517972946167,-0.6133087277412415,1.8527542352676392
1660273662653358000,2.069358154296875,-1.207069754600525,-0.6120869517326355,1.833817481994629
1660273662655358000,2.07135791015625,-1.1691961288452148,-0.6120869517326355,1.8222110271453857
1660273662657358000,2.073358154296875,-1.0903944969177246,-0.6108652353286743,1.8093829154968262
1660273662659358000,2.07535791015625,-1.0122036933898926,-0.607810914516449,1.788002610206604
1660273662661355500,2.07735546875,-0.931569516658783,-0.6065891981124878,1.7696765661239624
1660273662663354400,2.079354248046875,-0.8930850028991699,-0.6120869517326355,1.7629570960998535
1660273662665354200,2.081354248046875,-0.8124507665634155,-0.618195652961731,1.7409659624099731
1660273662667354400,2.083354248046875,-0.769690215587616,-0.6230825781822205,1.7330247163772583
1660273662669354200,2.085354248046875,-0.6866125464439392,-0.6389650702476501,1.709811806678772
1660273662671354400,2.087354248046875,-0.6010913848876953,-0.6579018831253052,1.6865988969802856
1660273662673354200,2.089354248046875,-0.5626068711280823,-0.6688974499702454,1.673770785331726
1660273662675354400,2.091354248046875,-0.4795292317867279,-0.6939429044723511,1.643227458000183
1660273662677354500,2.0933544921875,-0.39584067463874817,-0.7250970602035522,1.606575608253479
1660273662679354600,2.095354736328125,-0.35735616087913513,-0.7379252314567566,1.5906931161880493
1660273662681354500,2.0973544921875,-0.2816088795661926,-0.7641924023628235,1.5485434532165527
1660273662683354600,2.099354736328125,-0.20830504596233368,-0.7922922372817993,1.5039502382278442
1660273662685354800,2.101354736328125,-0.17531833052635193,-0.8063421249389648,1.4801265001296997
1660273662687354600,2.103354736328125,-0.11423180252313614,-0.8228355050086975,1.4300355911254883
1660273662689354800,2.105354736328125,-0.05619960278272629,-0.8405506014823914,1.3713924884796143
1660273662691355400,2.10735546875,-0.02871066704392433,-0.8472700715065002,1.3432927131652832
1660273662693355300,2.109355224609375,0.019547687843441963,-0.8570439219474792,1.2791517972946167
1660273662695355400,2.11135546875,0.06352998316287994,-0.8594874143600464,1.2101240158081055
1660273662697355300,2.113355224609375,0.08491026610136032,-0.8619308471679688,1.1740829944610596
1660273662699355400,2.11535546875,0.12400564551353455,-0.8582656979560852,1.0977247953414917
1660273662701354500,2.1173544921875,0.18875735998153687,-0.8411614298820496,0.9291260242462158
1660273662703353600,2.119353515625,0.18875735998153687,-0.8411614298820496,0.9291260242462158
1660273662705353500,2.121353515625,0.20402899384498596,-0.836885392665863,0.8851437568664551
1660273662707353900,2.123353759765625,0.2272418737411499,-0.8191702961921692,0.7935139536857605
1660273662709353700,2.125353759765625,0.24007004499435425,-0.8069530129432678,0.7434229850769043
1660273662711353900,2.127353759765625,0.2620611786842346,-0.779464066028595,0.6481280326843262
1660273662713353700,2.129353759765625,0.2840523421764374,-0.7513642311096191,0.5436700582504272
1660273662715353900,2.131353759765625,0.2938261926174164,-0.7330383062362671,0.49357911944389343
1660273662717353700,2.133353759765625,0.3182607889175415,-0.6914994716644287,0.3885102868080139
1660273662719353900,2.135353759765625,0.342695415019989,-0.646906316280365,0.28099802136421204
1660273662721354800,2.137354736328125,0.3579670190811157,-0.6200281977653503,0.23029619455337524
1660273662723355100,2.139355224609375,0.3885102868080139,-0.5656611919403076,0.12217304855585098
1660273662725355300,2.141355224609375,0.4202753007411957,-0.503963828086853,0.012217304669320583
1660273662727355100,2.143355224609375,0.43615779280662537,-0.47280970215797424,-0.039095375686883926
1660273662729355300,2.145355224609375,0.4715879559516907,-0.4086688458919525,-0.14477506279945374
1660273662731355400,2.14735546875,0.5051855444908142,-0.3384193480014801,-0.24923302233219147
1660273662733355300,2.149355224609375,0.5229006409645081,-0.3017674386501312,-0.2993239760398865
1660273662735355400,2.15135546875,0.5595525503158569,-0.2278527319431305,-0.3982841372489929
1660273662737355300,2.153355224609375,0.5955936312675476,-0.15393804013729095,-0.4948008358478546
1660273662739355100,2.155355224609375,0.6145304441452026,-0.11484266817569733,-0.5400048494338989
1660273662741354200,2.157354248046875,0.778853178024292,0.12767083942890167,-0.827111542224884
1660273662743353300,2.159353271484375,0.778853178024292,0.12767083942890167,-0.827111542224884
1660273662745352400,2.1613525390625,0.778853178024292,0.12767083942890167,-0.827111542224884
1660273662747351600,2.1633515625,0.807563841342926,0.15760323405265808,-0.8637634515762329
1660273662749351700,2.1653515625,0.837496280670166,0.1869247704744339,-0.9028588533401489
1660273662751351000,2.16735107421875,0.8655960559844971,0.21319197118282318,-0.9382890462875366
1660273662753351200,2.16935107421875,0.931569516658783,0.26022860407829285,-1.0067058801651
1660273662755351300,2.171351318359375,0.9963212013244629,0.3023782968521118,-1.0751228332519531
1660273662757351200,2.17335107421875,1.0305296182632446,0.3182607889175415,-1.1068878173828125
1660273662759351300,2.175351318359375,1.103833556175232,0.3500257730484009,-1.168585181236267
1660273662761352200,2.177352294921875,1.1759155988693237,0.37201693654060364,-1.2308934926986694
1660273662763353000,2.17935302734375,1.2125675678253174,0.3830125033855438,-1.2620476484298706
1660273662765353200,2.181353271484375,1.284038782119751,0.39767327904701233,-1.3213015794754028
1660273662767353000,2.18335302734375,1.359175205230713,0.41233405470848083,-1.3799445629119873
1660273662769353200,2.185353271484375,1.3952162265777588,0.4147774875164032,-1.4080443382263184
1660273662771353000,2.18735302734375,1.4660766124725342,0.423329621553421,-1.46424400806427
1660273662773353000,2.18935302734375,1.5375478267669678,0.42760565876960754,-1.5167783498764038
1660273662775353000,2.19135302734375,1.5741997957229614,0.4300491213798523,-1.5424346923828125
1660273662777353000,2.19335302734375,1.643227458000183,0.42760565876960754,-1.5943583250045776
1660273662779353000,2.19535302734375,1.7153096199035645,0.42271876335144043,-1.6438384056091309
1660273662781352200,2.197352294921875,1.9755382537841797,0.3597996234893799,-1.794722080230713
1660273662783351300,2.199351318359375,1.9755382537841797,0.3597996234893799,-1.794722080230713
1660273662785350400,2.201350341796875,1.9755382537841797,0.3597996234893799,-1.794722080230713
1660273662787349500,2.203349609375,1.9755382537841797,0.3597996234893799,-1.794722080230713
1660273662789349400,2.205349365234375,2.012190103530884,0.3481931984424591,-1.814880609512329
1660273662791349200,2.207349365234375,2.094046115875244,0.31520646810531616,-1.852143406867981
1660273662793349400,2.209349365234375,2.1337523460388184,0.2987131178379059,-1.8686367273330688
1660273662795349200,2.211349365234375,2.211332082748413,0.25961771607398987,-1.9034560918807983
1660273662797349400,2.213349365234375,2.288912057876587,0.2217440903186798,-1.9321668148040771
1660273662799349200,2.215349365234375,2.325563907623291,0.20402899384498596,-1.9480493068695068
1660273662801350100,2.21735009765625,2.3988678455352783,0.1618792861700058,-1.9700404405593872
1660273662803351000,2.21935107421875,2.4611761569976807,0.12095131725072861,-1.9914207458496094
1660273662805352000,2.22135205078125,2.4892759323120117,0.10201449692249298,-1.9950858354568481
1660273662807352800,2.223352783203125,2.540588617324829,0.06780604273080826,-2.0036380290985107
1660273662809353000,2.22535302734375,2.5833492279052734,0.03848451003432274,-2.0060815811157227
1660273662811352000,2.22735205078125,2.6004533767700195,0.024434609338641167,-2.0036380290985107
1660273662813352000,2.22935205078125,2.626720666885376,0.0006108652451075613,-1.9950858354568481
1660273662815351600,2.2313515625,2.649933338165283,-0.019547687843441963,-1.9773707389831543
1660273662817351400,2.233351318359375,2.66031813621521,-0.025656340643763542,-1.9688186645507812
1660273662819351600,2.2353515625,2.671313762664795,-0.04153883829712868,-1.948660135269165
1660273662821350700,2.2373505859375,2.7146852016448975,-0.0959058403968811,-1.8839083909988403
1660273662823349800,2.239349853515625,2.7201828956604004,-0.10384709388017654,-1.880243182182312
1660273662825348900,2.241348876953125,2.7256808280944824,-0.11178833991289139,-1.881464958190918
1660273662827348000,2.243347900390625,2.7256808280944824,-0.11178833991289139,-1.881464958190918
1660273662829347000,2.24534716796875,2.7256808280944824,-0.11178833991289139,-1.881464958190918
1660273662831346400,2.247346435546875,2.7256808280944824,-0.11178833991289139,-1.881464958190918
1660273662833346300,2.24934619140625,2.738508939743042,-0.12217304855585098,-1.8887953758239746
1660273662835346200,2.25134619140625,2.746450185775757,-0.12400564551353455,-1.8955148458480835
1660273662837346300,2.25334619140625,2.764165163040161,-0.13316862285137177,-1.9181169271469116
1660273662839346200,2.25534619140625,2.7843236923217773,-0.13500121235847473,-1.9492709636688232
1660273662841346300,2.25734619140625,2.7965409755706787,-0.13255776464939117,-1.9688186645507812
1660273662843346200,2.25934619140625,2.8179214000701904,-0.12767083942890167,-2.018298864364624
1660273662845345800,2.261345703125,2.844188690185547,-0.11362093687057495,-2.0751092433929443
1660273662847345400,2.263345458984375,2.8551840782165527,-0.10751228034496307,-2.1093177795410156
1660273662849345300,2.26534521484375,2.881451368331909,-0.09224065393209457,-2.1795670986175537
1660273662851345000,2.267344970703125,2.9040534496307373,-0.0757472887635231,-2.2620339393615723
1660273662853344800,2.2693447265625,2.9181032180786133,-0.06719517707824707,-2.3035728931427
1660273662855344600,2.2713447265625,2.941926956176758,-0.054367005825042725,-2.3933699131011963
1660273662857346600,2.2733466796875,2.9681942462921143,-0.03848451003432274,-2.4892759323120117
1660273662859346400,2.275346435546875,2.9798007011413574,-0.03176499158143997,-2.537534236907959
1660273662861343700,2.27734375,3.020728588104248,-0.004886921960860491,-2.682920217514038
1660273662863343600,2.279343505859375,3.034167766571045,0.004886921960860491,-2.7293457984924316
1660273662865342500,2.281342529296875,3.051271915435791,0.015882495790719986,-2.7763824462890625
1660273662867342600,2.283342529296875,3.07692813873291,0.039095375686883926,-2.8686232566833496
1660273662869342500,2.285342529296875,3.103806257247925,0.06536258012056351,-2.955976963043213
1660273662871342300,2.28734228515625,3.115412712097168,0.0806342139840126,-2.9975156784057617
1660273662873342200,2.28934228515625,3.1392364501953125,0.11178833991289139,-3.0744848251342773
1660273662875342300,2.29134228515625,3.1636710166931152,0.14538592100143433,-3.1398472785949707
1660273662877341400,2.293341552734375,3.1722233295440674,0.15882496535778046,-3.17161226272583
1660273662879341600,2.295341552734375,3.199101209640503,0.19120082259178162,-3.2223141193389893
1660273662881341400,2.297341552734375,3.224146842956543,0.22846360504627228,-3.266907215118408
1660273662883341600,2.299341552734375,3.235142230987549,0.24434609711170197,-3.2815680503845215
1660273662885341400,2.301341552734375,3.258355140686035,0.27061331272125244,-3.3090569972991943
1660273662887341600,2.303341552734375,3.280346393585205,0.29504790902137756,-3.3286046981811523
1660273662889342700,2.3053427734375,3.28828763961792,0.30482175946235657,-3.336545944213867
1660273662891342300,2.30734228515625,3.3017265796661377,0.32131510972976685,-3.338378667831421
1660273662893342200,2.30934228515625,3.3115005493164062,0.3286454975605011,-3.335935115814209
1660273662895341800,2.311341796875,3.3096678256988525,0.3274237811565399,-3.327993869781494
1660273662897342000,2.313342041015625,3.302948474884033,0.3194825351238251,-3.307835340499878
1660273662899341800,2.315341796875,3.288898468017578,0.303600013256073,-3.279735565185547
1660273662901341000,2.3173408203125,3.252246618270874,0.2626720666885376,-3.2168164253234863
1660273662903340000,2.319340087890625,3.252246618270874,0.2626720666885376,-3.2168164253234863
1660273662905340200,2.321340087890625,3.2204816341400146,0.2272418737411499,-3.1648929119110107
1660273662907340000,2.323340087890625,3.1978795528411865,0.2076941877603531,-3.138014793395996
1660273662909339400,2.32533935546875,3.146566867828369,0.16371189057826996,-3.0726521015167236
1660273662911339300,2.32733935546875,3.0860912799835205,0.11728613078594208,-3.006678819656372
1660273662913339400,2.32933935546875,3.0524935722351074,0.09040805697441101,-2.9694159030914307
1660273662915339000,2.331339111328125,2.9798007011413574,0.033597588539123535,-2.8906142711639404
1660273662917338400,2.33333837890625,2.8961122035980225,-0.031154127791523933,-2.803260564804077
1660273662919338500,2.33533837890625,2.8484647274017334,-0.06475171446800232,-2.758667469024658
1660273662921339400,2.33733935546875,2.7531697750091553,-0.1319468915462494,-2.6621506214141846
1660273662923339500,2.339339599609375,2.707354784011841,-0.2021963894367218,-2.6090054512023926
1660273662925340000,2.34133984375,2.602285861968994,-0.2376265823841095,-2.5057692527770996
1660273662927339800,2.34333984375,2.492330312728882,-0.3084869384765625,-2.39214825630188
1660273662929340000,2.34533984375,2.4361305236816406,-0.3439171314239502,-2.3322834968566895
1660273662931339800,2.34733984375,2.3212878704071045,-0.4098905920982361,-2.216830015182495
1660273662933340000,2.34933984375,2.202169179916382,-0.4740314185619354,-2.0983221530914307
1660273662935339800,2.35133984375,2.141693592071533,-0.504574716091156,-2.0390682220458984
1660273662937340200,2.353340087890625,2.0140228271484375,-0.5552765130996704,-1.9211711883544922
1660273662939340300,2.35534033203125,1.8875735998153687,-0.6029239892959595,-1.8057177066802979
1660273662941339400,2.35733935546875,1.454470157623291,-0.7409795522689819,-1.4440854787826538
1660273662943338200,2.359338134765625,1.454470157623291,-0.7409795522689819,-1.4440854787826538
1660273662945337300,2.36133740234375,1.454470157623291,-0.7409795522689819,-1.4440854787826538
1660273662947336400,2.36333642578125,1.454470157623291,-0.7409795522689819,-1.4440854787826538
1660273662949335600,2.36533544921875,1.398881435394287,-0.7568620443344116,-1.4025466442108154
1660273662951336000,2.3673359375,1.2944234609603882,-0.789237916469574,-1.3182471990585327
1660273662953335800,2.369335693359375,1.2467759847640991,-0.8032878041267395,-1.281595230102539
1660273662955336200,2.371336181640625,1.156978726387024,-0.8246681094169617,-1.2107349634170532
1660273662957336300,2.37333642578125,1.0757336616516113,-0.8423831462860107,-1.150259256362915
1660273662959336200,2.375336181640625,1.0384708642959595,-0.8448266386985779,-1.1239920854568481
1660273662961337600,2.377337646484375,0.9663888216018677,-0.8509352803230286,-1.0800096988677979
1660273662963338500,2.37933837890625,0.9108000993728638,-0.8442157506942749,-1.037249207496643
1660273662965338400,2.38133837890625,0.8790351152420044,-0.8399397134780884,-1.0201449394226074
1660273662967338500,2.38333837890625,0.8246681094169617,-0.8240572214126587,-0.9932668805122375
1660273662969339400,2.38533935546875,0.7776314616203308,-0.79840087890625,-0.970054030418396
1660273662971339000,2.387339111328125,0.7580837607383728,-0.7629706859588623,-0.9608910083770752
1660273662973339000,2.3893388671875,0.7189884185791016,-0.7422012686729431,-0.9456194043159485
1660273662975339300,2.39133935546875,0.6902777552604675,-0.6963863968849182,-0.9376781582832336
1660273662977339100,2.393339111328125,0.675616979598999,-0.6713408827781677,-0.9321803450584412
1660273662979339300,2.39533935546875,0.6542366743087769,-0.6200281977653503,-0.9291260242462158
1660273662981338400,2.39733837890625,0.6139195561408997,-0.3781255781650543,-0.9450085163116455
1660273662983337500,2.39933740234375,0.6139195561408997,-0.3781255781650543,-0.9450085163116455
1660273662985336600,2.401336669921875,0.6102544069290161,-0.3445279896259308,-0.950506329536438
1660273662987335700,2.403335693359375,0.6090326309204102,-0.313373863697052,-0.9560040831565857
1660273662989335000,2.4053349609375,0.6090326309204102,-0.313373863697052,-0.9560040831565857
1660273662991334400,2.40733447265625,0.6090326309204102,-0.313373863697052,-0.9560040831565857
1660273662993334500,2.40933447265625,0.6053674817085266,-0.24129177629947662,-0.9663888216018677
1660273662995334700,2.411334716796875,0.6029239892959595,-0.20402899384498596,-0.9718865752220154
1660273662997333800,2.413333740234375,0.5949827432632446,-0.1362229436635971,-0.9847147464752197
1660273662999334000,2.415333984375,0.588874101638794,-0.06658431142568588,-0.9938777685165405
1660273663001334800,2.417334716796875,0.5870414972305298,-0.02871066704392433,-1.0018190145492554
1660273663003335700,2.419335693359375,0.5803219676017761,0.04459316283464432,-1.0128145217895508
1660273663005336600,2.421336669921875,0.5650503635406494,0.11545353382825851,-1.024420976638794
1660273663007337500,2.42333740234375,0.5626068711280823,0.152105450630188,-1.027475357055664
1660273663009337300,2.42533740234375,0.5516113042831421,0.21624629199504852,-1.0378600358963013
1660273663011337500,2.42733740234375,0.543059229850769,0.28099802136421204,-1.0427470207214355
1660273663013337000,2.429337158203125,0.5363397002220154,0.30970868468284607,-1.047023057937622
1660273663015337000,2.4313369140625,0.5308418869972229,0.3646865487098694,-1.0500773191452026
1660273663017336800,2.4333369140625,0.523511528968811,0.4141666293144226,-1.0519099235534668
1660273663019337000,2.4353369140625,0.523511528968811,0.4337143301963806,-1.053742527961731
1660273663021335600,2.43733544921875,0.5357288122177124,0.5369505286216736,-1.0238101482391357
1660273663023334700,2.439334716796875,0.5357288122177124,0.5369505286216736,-1.0238101482391357
1660273663025333800,2.441333740234375,0.5381723046302795,0.5357288122177124,-1.017701506614685
1660273663027332900,2.443332763671875,0.5381723046302795,0.5357288122177124,-1.017701506614685
1660273663029332200,2.445332275390625,0.5387831330299377,0.5351179838180542,-1.0085384845733643
1660273663031331800,2.447331787109375,0.5387831330299377,0.5351179838180542,-1.0085384845733643
1660273663033332000,2.44933203125,0.5436700582504272,0.5326744914054871,-1.0005972385406494
1660273663035331800,2.451331787109375,0.5491678714752197,0.5216789245605469,-0.9779952764511108
1660273663037332000,2.45333203125,0.5528330206871033,0.5106833577156067,-0.9676105380058289
1660273663039331800,2.455331787109375,0.5595525503158569,0.4905247986316681,-0.940732479095459
1660273663041332000,2.45733203125,0.5644394755363464,0.4648684561252594,-0.9095783233642578
1660273663043331800,2.459331787109375,0.5668829679489136,0.4489859640598297,-0.8894197940826416
1660273663045332000,2.46133203125,0.5717698931694031,0.4141666293144226,-0.856433093547821
1660273663047331800,2.463331787109375,0.5736024379730225,0.3787364661693573,-0.8142833709716797
1660273663049331700,2.465331787109375,0.5723807215690613,0.35674530267715454,-0.7935139536857605
1660273663051331600,2.46733154296875,0.5766568183898926,0.31154128909111023,-0.7470881938934326
1660273663053331500,2.46933154296875,0.5760459303855896,0.26083946228027344,-0.6963863968849182
1660273663055329500,2.47132958984375,0.5754350423812866,0.23396138846874237,-0.6731734871864319
1660273663057329400,2.473329345703125,0.5760459303855896,0.17348572611808777,-0.616973876953125
1660273663059329300,2.475329345703125,0.578489363193512,0.10934487730264664,-0.5595525503158569
1660273663061326600,2.47732666015625,0.5791002511978149,0.04153883829712868,-0.5021312236785889
1660273663063326500,2.479326416015625,0.5772676467895508,0.00427605677396059,-0.4715879559516907
1660273663065326300,2.481326416015625,0.5797111392021179,-0.07147123664617538,-0.4105014503002167
1660273663067326200,2.483326171875,0.5797111392021179,-0.1111774742603302,-0.3799581825733185
1660273663069327400,2.485327392578125,0.5821545720100403,-0.18875735998153687,-0.31581732630729675
1660273663071327200,2.4873271484375,0.5760459303855896,-0.2626720666885376,-0.252287358045578
1660273663073327400,2.489327392578125,0.5736024379730225,-0.30054569244384766,-0.21868975460529327
1660273663075327200,2.4913271484375,0.5650503635406494,-0.3732386529445648,-0.15577064454555511
1660273663077327000,2.4933271484375,0.5564982295036316,-0.44226643443107605,-0.09407325088977814
1660273663079327200,2.4953271484375,0.5467243790626526,-0.4746423065662384,-0.06536258012056351
1660273663081327000,2.4973271484375,0.5277875661849976,-0.5363397002220154,-0.001832595793530345
1660273663083327200,2.4993271484375,0.5125159621238708,-0.5937610268592834,0.05742133408784866
1660273663085327000,2.5013271484375,0.5009095072746277,-0.6230825781822205,0.08552113175392151
1660273663087327200,2.5033271484375,0.48197266459465027,-0.6762278079986572,0.14355333149433136
1660273663089327000,2.5053271484375,0.4599815309047699,-0.7269296646118164,0.19792033731937408
1660273663091327200,2.5073271484375,0.4489859640598297,-0.7489207983016968,0.22663100063800812
1660273663093327000,2.5093271484375,0.4294382631778717,-0.7929030656814575,0.27977627515792847
1660273663095327200,2.5113271484375,0.41111230850219727,-0.8295549750328064,0.33292156457901
1660273663097327000,2.5133271484375,0.40133845806121826,-0.846659243106842,0.35552358627319336
1660273663099327000,2.515326904296875,0.3885102868080139,-0.8839219808578491,0.4043927788734436
1660273663101326000,2.517326171875,0.36224308609962463,-0.9456194043159485,0.4911356568336487
1660273663103325200,2.5193251953125,0.36224308609962463,-0.9456194043159485,0.4911356568336487
1660273663105325300,2.5213251953125,0.3549126982688904,-0.9566149711608887,0.5112941861152649
1660273663107325200,2.5233251953125,0.34697145223617554,-0.988990843296051,0.5497786998748779
1660273663109325300,2.5253251953125,0.3445279896259308,-0.9999864101409912,0.5656611919403076
1660273663111325200,2.5273251953125,0.3396410644054413,-1.0225883722305298,0.5962044596672058
1660273663113325300,2.5293251953125,0.34208452701568604,-1.0482447147369385,0.6218608021736145
1660273663115325700,2.53132568359375,0.3445279896259308,-1.0574077367782593,0.6322455406188965
1660273663117325800,2.533325927734375,0.35185837745666504,-1.0751228332519531,0.6524040699005127
1660273663119325700,2.53532568359375,0.3585779070854187,-1.086118459701538,0.66584312915802
1660273663121326800,2.537326904296875,0.3677408695220947,-1.0922271013259888,0.6688974499702454
1660273663123327000,2.539326904296875,0.3799581825733185,-1.0983357429504395,0.675616979598999
1660273663125326800,2.541326904296875,0.3952298164367676,-1.1001683473587036,0.6792821288108826
1660273663127327000,2.543326904296875,0.403781920671463,-1.1020009517669678,0.6798930168151855
1660273663129326300,2.545326416015625,0.4202753007411957,-1.0977247953414917,0.6774495840072632
1660273663131326500,2.547326416015625,0.4398229718208313,-1.091616153717041,0.6713408827781677
1660273663133326000,2.549326171875,0.44776421785354614,-1.0873401165008545,0.6719517707824707
1660273663135326000,2.551325927734375,0.46731191873550415,-1.0787880420684814,0.6646214127540588
1660273663137326000,2.553326171875,0.48747047781944275,-1.064738154411316,0.656680166721344
1660273663139326000,2.555325927734375,0.49846604466438293,-1.0561859607696533,0.6536257863044739
1660273663141325000,2.557324951171875,0.5852088928222656,-0.99876469373703,0.6114761233329773
1660273663143324200,2.55932421875,0.5852088928222656,-0.99876469373703,0.6114761233329773
1660273663145323300,2.5613232421875,0.6010913848876953,-0.9871582388877869,0.6041457056999207
1660273663147322400,2.563322265625,0.6010913848876953,-0.9871582388877869,0.6041457056999207
1660273663149322200,2.565322265625,0.6145304441452026,-0.9804387092590332,0.5974262356758118
1660273663151322400,2.567322265625,0.6279694437980652,-0.970054030418396,0.5900958180427551
1660273663153322200,2.569322265625,0.6517932415008545,-0.950506329536438,0.5766568183898926
1660273663155322400,2.571322265625,0.675616979598999,-0.9291260242462158,0.5613851547241211
1660273663157322200,2.573322265625,0.6841690540313721,-0.9205739498138428,0.5534439086914062
1660273663159322400,2.575322265625,0.7043276429176331,-0.8961393237113953,0.5412266254425049
1660273663161322800,2.57732275390625,0.7153232097625732,-0.8649851679801941,0.5247332453727722
1660273663163323600,2.57932373046875,0.7195992469787598,-0.8546004891395569,0.5204572081565857
1660273663165323800,2.58132373046875,0.7250970602035522,-0.826500654220581,0.5082398653030396
1660273663167323600,2.58332373046875,0.720820963382721,-0.797789990901947,0.4966334402561188
1660273663169323800,2.58532373046875,0.7171558141708374,-0.7867944240570068,0.49357911944389343
1660273663171324000,2.587323974609375,0.7024950385093689,-0.7605272531509399,0.4862487316131592
1660273663173323800,2.58932373046875,0.6860016584396362,-0.7379252314567566,0.47708576917648315
1660273663175323400,2.591323486328125,0.675616979598999,-0.7281513810157776,0.47280970215797424
1660273663177323000,2.593322998046875,0.646295428276062,-0.7122688889503479,0.47342056035995483
1660273663179323100,2.5953232421875,0.6151412725448608,-0.6976081132888794,0.4697553813457489
1660273663181322000,2.597322021484375,0.46792277693748474,-0.6499606370925903,0.46364670991897583
1660273663183321000,2.599321044921875,0.46792277693748474,-0.6499606370925903,0.46364670991897583
1660273663185320200,2.6013203125,0.46792277693748474,-0.6499606370925903,0.46364670991897583
1660273663187319300,2.6033193359375,0.46792277693748474,-0.6499606370925903,0.46364670991897583
1660273663189319400,2.6053193359375,0.4453207552433014,-0.6426302194595337,0.4648684561252594
1660273663191319600,2.607319580078125,0.3933972120285034,-0.6279694437980652,0.46364670991897583
1660273663193320000,2.60931982421875,0.36529740691185,-0.616973876953125,0.4612032473087311
1660273663195319800,2.61131982421875,0.3127630054950714,-0.59803706407547,0.46181413531303406
1660273663197320000,2.61331982421875,0.2535090744495392,-0.5748242139816284,0.45692721009254456
1660273663199320000,2.615320068359375,0.22602014243602753,-0.5626068711280823,0.455705463886261
1660273663201321000,2.617321044921875,0.16920967400074005,-0.5338962078094482,0.4502076804637909
1660273663203321900,2.61932177734375,0.10995574295520782,-0.5021312236785889,0.44104471802711487
1660273663205322800,2.62132275390625,0.08185594528913498,-0.485027015209198,0.4349360466003418
1660273663207323400,2.623323486328125,0.024434609338641167,-0.44776421785354614,0.4239404797554016
1660273663209323500,2.625323486328125,-0.030543262138962746,-0.4086688458919525,0.41233405470848083
1660273663211323400,2.627323486328125,-0.05864306539297104,-0.38606682419776917,0.403781920671463
1660273663213323500,2.629323486328125,-0.11362093687057495,-0.3445279896259308,0.3878994286060333
1660273663215323400,2.631323486328125,-0.1612684279680252,-0.2987131178379059,0.37262779474258423
1660273663217323500,2.633323486328125,-0.1820378452539444,-0.2767219543457031,0.3634648323059082
1660273663219323400,2.635323486328125,-0.22540926933288574,-0.2278527319431305,0.3445279896259308
1660273663221323000,2.637322998046875,-0.3445279896259308,-0.015882495790719986,0.23884831368923187
1660273663223322000,2.639322021484375,-0.3445279896259308,-0.015882495790719986,0.23884831368923187
1660273663225321200,2.6413212890625,-0.35246923565864563,0.005497787147760391,0.2272418737411499
1660273663227320300,2.6433203125,-0.35246923565864563,0.005497787147760391,0.2272418737411499
1660273663229319400,2.6453193359375,-0.35246923565864563,0.005497787147760391,0.2272418737411499
1660273663231318500,2.647318603515625,-0.35735616087913513,0.02871066704392433,0.21074850857257843
1660273663233318700,2.649318603515625,-0.36102136969566345,0.051312681287527084,0.20036379992961884
1660273663235319000,2.651319091796875,-0.3634648323059082,0.07147123664617538,0.18631389737129211
1660273663237319200,2.653319091796875,-0.3628539443016052,0.10873401165008545,0.16493362188339233
1660273663239319300,2.6553193359375,-0.35674530267715454,0.13988813757896423,0.1466076523065567
1660273663241320200,2.6573203125,-0.3530801236629486,0.152105450630188,0.13439035415649414
1660273663243320300,2.6593203125,-0.3378084897994995,0.1765400618314743,0.11362093687057495
