time,seconds_elapsed,z,y,x
1657787293142679000,0.163678955078125,1.6713273525238037,-0.2272418737411499,-0.1215621829032898
1657787293144704000,0.1657041015625,1.6676621437072754,-0.23884831368923187,-0.12217304855585098
1657787293146704100,0.1677041015625,1.6646077632904053,-0.2590068578720093,-0.11911872029304504
1657787293148698000,0.169697998046875,1.6615535020828247,-0.2669481039047241,-0.11484266817569733
1657787293150698000,0.171697998046875,1.6505578756332397,-0.2834414839744568,-0.10567969083786011
1657787293152697900,0.17369775390625,1.6383405923843384,-0.2968805134296417,-0.09468411654233932
1657787293154697700,0.17569775390625,1.6322319507598877,-0.303600013256073,-0.08796459436416626
1657787293156697300,0.177697265625,1.6194037199020386,-0.30970868468284607,-0.07452555745840073
1657787293158697200,0.179697265625,1.6016886234283447,-0.31154128909111023,-0.05742133408784866
1657787293160697000,0.181697021484375,1.5949691534042358,-0.31031954288482666,-0.051312681287527084
1657787293162697000,0.183697021484375,1.5766432285308838,-0.31031954288482666,-0.03481931984424591
1657787293164697000,0.185697021484375,1.5601497888565063,-0.30482175946235657,-0.019547687843441963
1657787293166695700,0.18769580078125,1.549154281616211,-0.30115658044815063,-0.012828170321881771
1657787293168695800,0.18969580078125,1.531439185142517,-0.29138273000717163,0.0024434609804302454
1657787293170695700,0.19169580078125,1.5149458646774292,-0.28099802136421204,0.015882495790719986
1657787293172695800,0.19369580078125,1.5051720142364502,-0.2718350291252136,0.025045474991202354
1657787293174695700,0.19569580078125,1.4880677461624146,-0.2583959996700287,0.036651913076639175
1657787293176694300,0.1976943359375,1.4275920391082764,-0.18814650177955627,0.07880161702632904
1657787293178692600,0.199692626953125,1.4227051734924316,-0.1814269721508026,0.08246681094169617
1657787293180691200,0.201691162109375,1.4172073602676392,-0.1722639948129654,0.08857546001672745
1657787293182689800,0.203689697265625,1.4172073602676392,-0.1722639948129654,0.08857546001672745
1657787293184688400,0.2056884765625,1.4104878902435303,-0.16310101747512817,0.08857546001672745
1657787293186687000,0.20768701171875,1.4104878902435303,-0.16310101747512817,0.08857546001672745
1657787293188687000,0.20968701171875,1.4037683010101318,-0.15393804013729095,0.09285151958465576
1657787293190687000,0.21168701171875,1.3946053981781006,-0.14477506279945374,0.0959058403968811
1657787293192686800,0.213686767578125,1.3823879957199097,-0.12950342893600464,0.10018189996480942
1657787293194687000,0.21568701171875,1.368949055671692,-0.11362093687057495,0.10506882518529892
1657787293196686800,0.217686767578125,1.36650550365448,-0.10995574295520782,0.10567969083786011
1657787293198687000,0.21968701171875,1.3548991680145264,-0.09773843735456467,0.10812314599752426
1657787293200686800,0.221686767578125,1.3432927131652832,-0.09162978827953339,0.11362093687057495
1657787293202687000,0.22368701171875,1.3371840715408325,-0.08857546001672745,0.11362093687057495
1657787293204686800,0.225686767578125,1.3274102210998535,-0.08185594528913498,0.11728613078594208
1657787293206687000,0.22768701171875,1.318858027458191,-0.07513642311096191,0.11789698898792267
1657787293208686800,0.229686767578125,1.3103059530258179,-0.07391469180583954,0.11972958594560623
1657787293210687000,0.23168701171875,1.302364706993103,-0.07024950534105301,0.12400564551353455
1657787293212686800,0.233686767578125,1.2907582521438599,-0.06352998316287994,0.12461651116609573
1657787293214687000,0.23568701171875,1.2877039909362793,-0.06169738993048668,0.12889257073402405
1657787293216685000,0.23768505859375,1.2431107759475708,-0.036651913076639175,0.14294247329235077
1657787293218683000,0.239682861328125,1.2431107759475708,-0.036651913076639175,0.14294247329235077
1657787293220680700,0.2416806640625,1.2370021343231201,-0.031154127791523933,0.14782938361167908
1657787293222678800,0.2436787109375,1.2308934926986694,-0.025045474991202354,0.14905111491680145
1657787293224677000,0.245677001953125,1.225395679473877,-0.021380282938480377,0.152105450630188
1657787293226675500,0.247675537109375,1.225395679473877,-0.021380282938480377,0.152105450630188
1657787293228675300,0.24967529296875,1.2162326574325562,-0.013439035043120384,0.15271630883216858
1657787293230675500,0.251675537109375,1.2040153741836548,0.0006108652451075613,0.1569923609495163
1657787293232675300,0.25367529296875,1.197295904159546,0.009162978269159794,0.16004669666290283
1657787293234675500,0.255675537109375,1.1832460165023804,0.028099801391363144,0.1612684279680252
1657787293236675300,0.25767529296875,1.168585181236267,0.045204028487205505,0.16310101747512817
1657787293238675500,0.259675537109375,1.1673635244369507,0.05742133408784866,0.16310101747512817
1657787293240675300,0.26167529296875,1.151481032371521,0.0806342139840126,0.16249015927314758
1657787293242675500,0.263675537109375,1.1410962343215942,0.09957103431224823,0.16004669666290283
1657787293244675300,0.26567529296875,1.1301007270812988,0.10690141469240189,0.15943582355976105
1657787293246675500,0.267675537109375,1.1191051006317139,0.12217304855585098,0.15760323405265808
1657787293248675600,0.269675537109375,1.1062769889831543,0.12828169763088226,0.15393804013729095
1657787293250675500,0.271675537109375,1.1007791757583618,0.13255776464939117,0.15332718193531036
1657787293252675600,0.273675537109375,1.0897835493087769,0.13500121235847473,0.152105450630188
1657787293254675500,0.275675537109375,1.0787880420684814,0.1368338167667389,0.152105450630188
1657787293256674800,0.2776748046875,1.0671815872192383,0.13744467496871948,0.14844025671482086
1657787293258674700,0.2796748046875,1.0610729455947876,0.1368338167667389,0.15027284622192383
1657787293260674800,0.2816748046875,1.053742527961731,0.1368338167667389,0.1514945775270462
1657787293262674700,0.2836748046875,1.0494664907455444,0.1362229436635971,0.15271630883216858
1657787293264674800,0.2856748046875,1.0390818119049072,0.13439035415649414,0.15577064454555511
1657787293266674700,0.2876748046875,1.0280861854553223,0.13500121235847473,0.1612684279680252
1657787293268674800,0.2896748046875,1.0238101482391357,0.1368338167667389,0.16371189057826996
1657787293270674700,0.2916748046875,1.0134254693984985,0.14233160018920898,0.16982053220272064
1657787293272674800,0.2936748046875,0.9999864101409912,0.14782938361167908,0.17837265133857727
1657787293274674700,0.2956748046875,0.9926560521125793,0.15271630883216858,0.182648703455925
1657787293276676000,0.297676025390625,0.9822713136672974,0.16065755486488342,0.19120082259178162
1657787293278676700,0.2996767578125,0.9676105380058289,0.17104226350784302,0.20402899384498596
1657787293280677600,0.301677734375,0.9615018963813782,0.17776179313659668,0.2070833146572113
1657787293282678500,0.303678466796875,0.949895441532135,0.18875735998153687,0.21502456068992615
1657787293284679400,0.305679443359375,0.9321803450584412,0.20036379992961884,0.2278527319431305
1657787293286680000,0.30768017578125,0.9248499870300293,0.2076941877603531,0.23151792585849762
1657787293288680200,0.30968017578125,0.9101892113685608,0.21991148591041565,0.24129177629947662
1657787293290680000,0.31168017578125,0.8912523984909058,0.23518311977386475,0.25045475363731384
1657787293292680200,0.31368017578125,0.8820894360542297,0.2431243658065796,0.25534167885780334
1657787293294680300,0.315680419921875,0.8655960559844971,0.2577851414680481,0.26145032048225403
1657787293296679400,0.317679443359375,0.8381071090698242,0.2791654169559479,0.27061331272125244
1657787293298678500,0.319678466796875,0.8301658630371094,0.28588494658470154,0.2730567753314972
1657787293300678100,0.32167822265625,0.8234463334083557,0.29016098380088806,0.2767219543457031
1657787293302678300,0.32367822265625,0.807563841342926,0.30054569244384766,0.2779437005519867
1657787293304678400,0.325678466796875,0.8002334833145142,0.3066543638706207,0.27977627515792847
1657787293306678300,0.32767822265625,0.7843509912490845,0.31154128909111023,0.2816088795661926
1657787293308678400,0.329678466796875,0.7709119319915771,0.3127630054950714,0.2840523421764374
1657787293310678300,0.33167822265625,0.7635815739631653,0.31031954288482666,0.28527405858039856
1657787293312678100,0.33367822265625,0.750142514705658,0.30482175946235657,0.2871066629886627
1657787293314678300,0.33567822265625,0.7342600226402283,0.29993483424186707,0.28466320037841797
1657787293316679000,0.337678955078125,0.7281513810157776,0.2938261926174164,0.2840523421764374
1657787293318679000,0.339678955078125,0.7183775305747986,0.2779437005519867,0.28099802136421204
1657787293320679000,0.341678955078125,0.7043276429176331,0.2638937830924988,0.28099802136421204
1657787293322679000,0.343678955078125,0.6988298296928406,0.2541199326515198,0.28038713335990906
1657787293324679000,0.345678955078125,0.6896668672561646,0.23457226157188416,0.2730567753314972
1657787293326679000,0.347678955078125,0.6762278079986572,0.21135938167572021,0.2736676335334778
1657787293328679200,0.34967919921875,0.6743952035903931,0.19975294172763824,0.27122417092323303
1657787293330679000,0.351678955078125,0.6633996367454529,0.17776179313659668,0.26572638750076294
1657787293332679200,0.35367919921875,0.6536257863044739,0.1508837193250656,0.26145032048225403
1657787293334679300,0.35567919921875,0.6499606370925903,0.13866640627384186,0.25961771607398987
1657787293336677600,0.357677734375,0.6206390857696533,0.031154127791523933,0.23090706765651703
1657787293338676700,0.3596767578125,0.6206390857696533,0.031154127791523933,0.23090706765651703
1657787293340676000,0.361676025390625,0.6163630485534668,0.012828170321881771,0.2272418737411499
1657787293342675200,0.36367529296875,0.6163630485534668,0.012828170321881771,0.2272418737411499
1657787293344675000,0.365675048828125,0.6126978397369385,-0.00733038317412138,0.22357667982578278
1657787293346675200,0.36767529296875,0.608421802520752,-0.025045474991202354,0.21868975460529327
1657787293348675000,0.369675048828125,0.5998696684837341,-0.06169738993048668,0.2119702398777008
1657787293350675200,0.37167529296875,0.588263213634491,-0.10201449692249298,0.2076941877603531
1657787293352675000,0.373675048828125,0.5858197808265686,-0.1215621829032898,0.2028072625398636
1657787293354675000,0.375675048828125,0.5766568183898926,-0.1563815027475357,0.19792033731937408
1657787293356675300,0.37767529296875,0.5687155723571777,-0.18875735998153687,0.1918116807937622
1657787293358676000,0.379676025390625,0.5607742667198181,-0.2064724564552307,0.1869247704744339
1657787293360676000,0.381676025390625,0.5522221922874451,-0.23640485107898712,0.18448130786418915
1657787293362676200,0.38367626953125,0.5400048494338989,-0.26145032048225403,0.17959438264369965
1657787293364676000,0.385676025390625,0.5326744914054871,-0.2718350291252136,0.1771509200334549
1657787293366676000,0.387676025390625,0.5210680365562439,-0.29077184200286865,0.17409659922122955
1657787293368676000,0.389676025390625,0.5057964324951172,-0.30115658044815063,0.16920967400074005
1657787293370676200,0.39167626953125,0.4990769028663635,-0.3090978264808655,0.16920967400074005
1657787293372676000,0.393676025390625,0.48685958981513977,-0.3176499307155609,0.1667662113904953
1657787293374676200,0.39567626953125,0.4801400899887085,-0.32498031854629517,0.16249015927314758
1657787293376675300,0.39767529296875,0.4294382631778717,-0.3078760802745819,0.15515977144241333
1657787293378674700,0.3996748046875,0.4294382631778717,-0.3078760802745819,0.15515977144241333
1657787293380673800,0.401673828125,0.4294382631778717,-0.3078760802745819,0.15515977144241333
1657787293382673000,0.4036728515625,0.4294382631778717,-0.3078760802745819,0.15515977144241333
1657787293384672000,0.405672119140625,0.423329621553421,-0.3017674386501312,0.15577064454555511
1657787293386671600,0.407671630859375,0.41111230850219727,-0.294437050819397,0.1569923609495163
1657787293388671500,0.40967138671875,0.40683624148368835,-0.29138273000717163,0.15882496535778046
1657787293390671400,0.41167138671875,0.39095374941825867,-0.27611109614372253,0.15943582355976105
1657787293392671500,0.41367138671875,0.3799581825733185,-0.26572638750076294,0.16798794269561768
1657787293394671400,0.41567138671875,0.37262779474258423,-0.26022860407829285,0.1667662113904953
1657787293396672500,0.417672607421875,0.3591887652873993,-0.24617868661880493,0.1722639948129654
1657787293398673400,0.41967333984375,0.34758231043815613,-0.23090706765651703,0.17776179313659668
1657787293400674000,0.421674072265625,0.33719760179519653,-0.22357667982578278,0.18325957655906677
1657787293402675000,0.423675048828125,0.3237585723400116,-0.2070833146572113,0.18814650177955627
1657787293404675000,0.425675048828125,0.3078760802745819,-0.18448130786418915,0.19547687470912933
1657787293406675500,0.427675537109375,0.3017674386501312,-0.17592918872833252,0.19975294172763824
1657787293408675600,0.429675537109375,0.2871066629886627,-0.15393804013729095,0.2076941877603531
1657787293410675700,0.43167578125,0.27122417092323303,-0.13500121235847473,0.21502456068992615
1657787293412675600,0.433675537109375,0.2620611786842346,-0.12400564551353455,0.22052235901355743
1657787293414675700,0.43567578125,0.24923302233219147,-0.1014036312699318,0.2321287989616394
1657787293416675300,0.43767529296875,0.18936823308467865,-0.01710422709584236,0.2736676335334778
1657787293418674700,0.4396748046875,0.1814269721508026,-0.006719517521560192,0.2791654169559479
1657787293420673800,0.441673828125,0.1722639948129654,0.005497787147760391,0.28466320037841797
1657787293422673000,0.4436728515625,0.1722639948129654,0.005497787147760391,0.28466320037841797
1657787293424672300,0.44567236328125,0.1722639948129654,0.005497787147760391,0.28466320037841797
1657787293426672000,0.447672119140625,0.1722639948129654,0.005497787147760391,0.28466320037841797
1657787293428672300,0.44967236328125,0.15393804013729095,0.02382374368607998,0.2926044464111328
1657787293430672100,0.451672119140625,0.14294247329235077,0.03481931984424591,0.2968805134296417
1657787293432672000,0.453672119140625,0.12461651116609573,0.04764748737215996,0.3023782968521118
1657787293434671900,0.455671875,0.10567969083786011,0.05803219974040985,0.3084869384765625
1657787293436672000,0.457672119140625,0.09834930300712585,0.059864792972803116,0.30970868468284607
1657787293438672000,0.459671875,0.07696902006864548,0.06108652427792549,0.3139847218990326
1657787293440672000,0.461672119140625,0.060475658625364304,0.05925392732024193,0.31459560990333557
1657787293442671900,0.463671875,0.0507018156349659,0.054367005825042725,0.31520646810531616
1657787293444672000,0.465672119140625,0.0354301854968071,0.04764748737215996,0.31581732630729675
1657787293446675200,0.46767529296875,0.01710422709584236,0.03726277872920036,0.3121521472930908
1657787293448675300,0.46967529296875,0.009162978269159794,0.029932396486401558,0.31154128909111023
1657787293450675500,0.471675537109375,-0.01038470957428217,0.01710422709584236,0.3029891550540924
1657787293452675600,0.473675537109375,-0.025045474991202354,0.006108652334660292,0.2938261926174164
1657787293454675700,0.47567578125,-0.03420845419168472,-0.0012217304902151227,0.2889392673969269
1657787293456673300,0.47767333984375,-0.059864792972803116,-0.015882495790719986,0.2675589919090271
1657787293458673400,0.47967333984375,-0.06963863968849182,-0.022602014243602753,0.2577851414680481
1657787293460673800,0.481673828125,-0.07819075137376785,-0.027488935738801956,0.24862214922904968
1657787293462676500,0.483676513671875,-0.09346238523721695,-0.0354301854968071,0.23029619455337524
1657787293464676400,0.48567626953125,-0.10995574295520782,-0.04764748737215996,0.2119702398777008
1657787293466676500,0.487676513671875,-0.11972958594560623,-0.0507018156349659,0.2028072625398636
1657787293468676400,0.48967626953125,-0.13439035415649414,-0.05375614017248154,0.1820378452539444
1657787293470676500,0.491676513671875,-0.14782938361167908,-0.06291911751031876,0.16249015927314758
1657787293472676400,0.49367626953125,-0.15821409225463867,-0.06414084881544113,0.15393804013729095
1657787293474676500,0.495676513671875,-0.17531833052635193,-0.0659734457731247,0.1362229436635971
1657787293476676400,0.49767626953125,-0.19486601650714874,-0.06780604273080826,0.1160643994808197
1657787293478676500,0.499676513671875,-0.2028072625398636,-0.07024950534105301,0.10873401165008545
1657787293480676400,0.50167626953125,-0.22052235901355743,-0.07147123664617538,0.08918632566928864
1657787293482676500,0.503676513671875,-0.22968533635139465,-0.0708603709936142,0.07880161702632904
1657787293484676600,0.505676513671875,-0.24617868661880493,-0.08124507963657379,0.06414084881544113
1657787293486676500,0.507676513671875,-0.2632829248905182,-0.09040805697441101,0.04948008432984352
1657787293488676600,0.509676513671875,-0.2718350291252136,-0.09896016865968704,0.045204028487205505
1657787293490676500,0.511676513671875,-0.29138273000717163,-0.10934487730264664,0.02932153269648552
1657787293492676600,0.513676513671875,-0.3084869384765625,-0.1215621829032898,0.01771509274840355
1657787293494676700,0.5156767578125,-0.31520646810531616,-0.13011430203914642,0.012828170321881771
1657787293496675800,0.51767578125,-0.34147366881370544,-0.1508837193250656,-0.013439035043120384
1657787293498675000,0.519675048828125,-0.34147366881370544,-0.1508837193250656,-0.013439035043120384
1657787293500674600,0.521674560546875,-0.3481931984424591,-0.15454891324043274,-0.018325956538319588
1657787293502674400,0.52367431640625,-0.3536909818649292,-0.16310101747512817,-0.036041051149368286
1657787293504674600,0.525674560546875,-0.3585779070854187,-0.16859880089759827,-0.05314527451992035
1657787293506674000,0.527673828125,-0.3604104816913605,-0.16982053220272064,-0.059864792972803116
1657787293508674000,0.529674072265625,-0.3604104816913605,-0.1661553531885147,-0.07819075137376785
1657787293510674000,0.531673828125,-0.3604104816913605,-0.1563815027475357,-0.09529497474431992
1657787293512673800,0.533673828125,-0.3591887652873993,-0.14782938361167908,-0.10262536257505417
1657787293514674000,0.535673828125,-0.3549126982688904,-0.12034045159816742,-0.12828169763088226
1657787293516674800,0.5376748046875,-0.3530801236629486,-0.09651670604944229,-0.14782938361167908
1657787293518674700,0.5396748046875,-0.3500257730484009,-0.08491026610136032,-0.16065755486488342
1657787293520674300,0.54167431640625,-0.3439171314239502,-0.07208210229873657,-0.1765400618314743
1657787293522673400,0.54367333984375,-0.3390302062034607,-0.06291911751031876,-0.192422553896904
1657787293524673300,0.54567333984375,-0.33475416898727417,-0.05803219974040985,-0.19792033731937408
1657787293526673400,0.54767333984375,-0.3274237811565399,-0.04948008432984352,-0.20891591906547546
1657787293528673500,0.549673583984375,-0.32620203495025635,-0.04337143152952194,-0.22357667982578278
1657787293530673400,0.55167333984375,-0.3243694305419922,-0.04214970022439957,-0.2278527319431305
1657787293532673500,0.553673583984375,-0.3237585723400116,-0.02871066704392433,-0.24373523890972137
1657787293534673400,0.55567333984375,-0.32620203495025635,-0.012828170321881771,-0.2571742534637451
1657787293536672800,0.5576728515625,-0.32498031854629517,0.06963863968849182,-0.313373863697052
1657787293538671900,0.559671875,-0.32498031854629517,0.06963863968849182,-0.313373863697052
1657787293540671000,0.5616708984375,-0.32498031854629517,0.06963863968849182,-0.313373863697052
1657787293542670000,0.563670166015625,-0.32498031854629517,0.06963863968849182,-0.313373863697052
1657787293544670000,0.565669921875,-0.3219259977340698,0.08491026610136032,-0.323147714138031
1657787293546670000,0.567670166015625,-0.31642818450927734,0.12339477986097336,-0.34208452701568604
1657787293548670000,0.569669921875,-0.31031954288482666,0.1472185254096985,-0.3500257730484009
1657787293550670000,0.571670166015625,-0.29504790902137756,0.21013765037059784,-0.36529740691185
1657787293552670000,0.573669921875,-0.2736676335334778,0.2742784917354584,-0.38179078698158264
1657787293554669800,0.575669921875,-0.2620611786842346,0.3072652220726013,-0.3897320330142975
1657787293556671000,0.5776708984375,-0.24129177629947662,0.36590829491615295,-0.4050036668777466
1657787293558672000,0.579671875,-0.2168571650981903,0.41722095012664795,-0.41722095012664795
1657787293560672300,0.58167236328125,-0.2076941877603531,0.4404338300228119,-0.42699480056762695
1657787293562672000,0.583672119140625,-0.19058994948863983,0.4697553813457489,-0.43737950921058655
1657787293564672000,0.585672119140625,-0.17592918872833252,0.4911356568336487,-0.44715335965156555
1657787293566672000,0.587671875,-0.1716531366109848,0.4948008358478546,-0.45204028487205505
1657787293568672000,0.589672119140625,-0.16737708449363708,0.5027421116828918,-0.46181413531303406
1657787293570672000,0.591672119140625,-0.16371189057826996,0.4966334402561188,-0.4691445231437683
1657787293572672000,0.593672119140625,-0.16371189057826996,0.49785518646240234,-0.47280970215797424
1657787293574672100,0.595672119140625,-0.17043140530586243,0.4905247986316681,-0.475253164768219
1657787293576671200,0.597671142578125,-0.23090706765651703,0.4764748811721802,-0.4807509481906891
1657787293578670300,0.59967041015625,-0.23090706765651703,0.4764748811721802,-0.4807509481906891
1657787293580669400,0.60166943359375,-0.23090706765651703,0.4764748811721802,-0.4807509481906891
1657787293582668500,0.60366845703125,-0.24373523890972137,0.47708576917648315,-0.48380526900291443
1657787293584668000,0.60566796875,-0.25473082065582275,0.4758640229701996,-0.4807509481906891
1657787293586667000,0.6076669921875,-0.25473082065582275,0.4758640229701996,-0.4807509481906891
1657787293588667000,0.6096669921875,-0.2779437005519867,0.4758640229701996,-0.4807509481906891
1657787293590667000,0.6116669921875,-0.2926044464111328,0.475253164768219,-0.48319441080093384
1657787293592667000,0.6136669921875,-0.32009339332580566,0.46303585171699524,-0.48380526900291443
1657787293594666800,0.615666748046875,-0.3536909818649292,0.4453207552433014,-0.48747047781944275
1657787293596667600,0.617667724609375,-0.37140607833862305,0.43188172578811646,-0.4905247986316681
1657787293598668500,0.61966845703125,-0.4050036668777466,0.40256020426750183,-0.5002986192703247
1657787293600669200,0.621669189453125,-0.4349360466003418,0.36590829491615295,-0.5106833577156067
1657787293602670000,0.623670166015625,-0.4489859640598297,0.3481931984424591,-0.5155702829360962
1657787293604670200,0.625670166015625,-0.48319441080093384,0.30970868468284607,-0.5271766781806946
1657787293606670300,0.62767041015625,-0.504574716091156,0.2736676335334778,-0.5412266254425049
1657787293608670200,0.629670166015625,-0.5174028873443604,0.2565633952617645,-0.5497786998748779
1657787293610670300,0.63167041015625,-0.5363397002220154,0.2272418737411499,-0.5668829679489136
1657787293612670500,0.63367041015625,-0.5448917746543884,0.19975294172763824,-0.5833762884140015
1657787293614670300,0.63567041015625,-0.5479460954666138,0.18997909128665924,-0.5919284224510193
1657787293616669400,0.63766943359375,-0.5021312236785889,0.10201449692249298,-0.6524040699005127
1657787293618668500,0.63966845703125,-0.49235737323760986,0.08979719132184982,-0.6572909951210022
1657787293620667600,0.641667724609375,-0.49235737323760986,0.08979719132184982,-0.6572909951210022
1657787293622666800,0.643666748046875,-0.47830748558044434,0.0806342139840126,-0.6621779203414917
1657787293624666600,0.64566650390625,-0.4648684561252594,0.0708603709936142,-0.6664539575576782
1657787293626666000,0.647666015625,-0.4648684561252594,0.0708603709936142,-0.6664539575576782
1657787293628665900,0.649665771484375,-0.44837507605552673,0.06169738993048668,-0.6688974499702454
1657787293630666000,0.651666015625,-0.41599923372268677,0.04153883829712868,-0.6719517707824707
1657787293632665900,0.653665771484375,-0.39767327904701233,0.03176499158143997,-0.6719517707824707
1657787293634666000,0.655666015625,-0.36102136969566345,0.00733038317412138,-0.6676757335662842
1657787293636666600,0.65766650390625,-0.3219259977340698,-0.021991148591041565,-0.6603453159332275
1657787293638667500,0.65966748046875,-0.303600013256073,-0.039095375686883926,-0.6524040699005127
1657787293640668400,0.66166845703125,-0.26145032048225403,-0.07391469180583954,-0.6340781450271606
1657787293642669300,0.66366943359375,-0.22113321721553802,-0.10812314599752426,-0.6157521605491638
1657787293644670200,0.665670166015625,-0.2028072625398636,-0.12339477986097336,-0.6041457056999207
1657787293646670600,0.667670654296875,-0.1661553531885147,-0.15454891324043274,-0.5760459303855896
1657787293648670700,0.669670654296875,-0.13072516024112701,-0.1875356286764145,-0.5455026626586914
1657787293650670600,0.671670654296875,-0.11423180252313614,-0.20402899384498596,-0.5296201705932617
1657787293652670700,0.673670654296875,-0.08429940044879913,-0.2370157092809677,-0.49296826124191284
1657787293654670800,0.6756708984375,-0.060475658625364304,-0.27488934993743896,-0.4538728892803192
1657787293656670000,0.677669921875,-0.042760565876960754,-0.31520646810531616,-0.4086688458919525
1657787293658669600,0.679669677734375,-0.03420845419168472,-0.33658674359321594,-0.384845107793808
1657787293660670000,0.681669921875,-0.022602014243602753,-0.3799581825733185,-0.3384193480014801
1657787293662669800,0.683669921875,-0.016493361443281174,-0.403781920671463,-0.31154128909111023
1657787293664670000,0.685669921875,-0.006719517521560192,-0.4495968222618103,-0.2577851414680481
1657787293666669800,0.687669921875,-0.0006108652451075613,-0.4990769028663635,-0.20036379992961884
1657787293668669400,0.68966943359375,0.006719517521560192,-0.5198463201522827,-0.17348572611808777
1657787293670669300,0.69166943359375,0.014049900695681572,-0.5693264007568359,-0.11728613078594208
1657787293672669400,0.69366943359375,0.02076941914856434,-0.6236934065818787,-0.059864792972803116
1657787293674669300,0.69566943359375,0.025045474991202354,-0.6511823534965515,-0.02871066704392433
1657787293676670700,0.697670654296875,0.033597588539123535,-0.7116580009460449,0.03420845419168472
1657787293678671600,0.699671630859375,0.04214970022439957,-0.7727445363998413,0.09651670604944229
1657787293680672500,0.701672607421875,0.04581489413976669,-0.8026769161224365,0.12461651116609573
1657787293682673400,0.70367333984375,0.054367005825042725,-0.8655960559844971,0.18814650177955627
1657787293684673800,0.705673828125,0.06169738993048668,-0.9272934198379517,0.252287358045578
1657787293686674400,0.70767431640625,0.06414084881544113,-0.9590584635734558,0.2840523421764374
1657787293688674600,0.709674560546875,0.06658431142568588,-1.0207557678222656,0.3481931984424591
1657787293690674400,0.71167431640625,0.06902777403593063,-1.0787880420684814,0.41172316670417786
1657787293692674600,0.713674560546875,0.06902777403593063,-1.1081095933914185,0.4404338300228119
1657787293694674700,0.7156748046875,0.06902777403593063,-1.1636983156204224,0.5009095072746277
1657787293696673800,0.717673828125,0.06108652427792549,-1.2260065078735352,0.5845980644226074
1657787293698673000,0.7196728515625,0.05925392732024193,-1.2431107759475708,0.6133087277412415
1657787293700672800,0.7216728515625,0.0555887371301651,-1.2571606636047363,0.6389650702476501
1657787293702673000,0.7236728515625,0.03237585723400116,-1.2479976415634155,0.6768386960029602
1657787293704672800,0.7256728515625,0.012828170321881771,-1.2107349634170532,0.6762278079986572
1657787293706673200,0.727673095703125,-0.028099801391363144,-1.2082914113998413,0.7171558141708374
1657787293708673000,0.729673095703125,-0.07880161702632904,-1.2034045457839966,0.759916365146637
1657787293710673200,0.731673095703125,-0.10445795953273773,-1.1954632997512817,0.7721336483955383
1657787293712673000,0.733673095703125,-0.16737708449363708,-1.168585181236267,0.8069530129432678
1657787293714673000,0.7356728515625,-0.2370157092809677,-1.1270463466644287,0.8326093554496765
1657787293716673500,0.737673583984375,-0.2742784917354584,-1.102611780166626,0.8454375267028809
1657787293718673700,0.739673583984375,-0.35674530267715454,-1.037249207496643,0.8600982427597046
1657787293720673500,0.741673583984375,-0.44837507605552673,-0.9443976879119873,0.8643743395805359
1657787293722673400,0.74367333984375,-0.49785518646240234,-0.8973610401153564,0.8662069439888
1657787293724673500,0.745673583984375,-0.588263213634491,-0.8148942589759827,0.8729264140129089
1657787293726673400,0.74767333984375,-0.6823364496231079,-0.7275404930114746,0.8808676600456238
1657787293728673800,0.749673828125,-0.7293730974197388,-0.675616979598999,0.8808676600456238
1657787293730674000,0.751673828125,-0.826500654220581,-0.5516113042831421,0.8759807348251343
1657787293732673800,0.753673828125,-0.9236282706260681,-0.4050036668777466,0.8643743395805359
1657787293734674000,0.755673828125,-0.9773843884468079,-0.33292156457901,0.8582656979560852
1657787293736672500,0.757672607421875,-1.3151928186416626,0.04337143152952194,0.8362745046615601
1657787293738671600,0.759671630859375,-1.3151928186416626,0.04337143152952194,0.8362745046615601
1657787293740671000,0.7616708984375,-1.3530665636062622,0.06780604273080826,0.8411614298820496
1657787293742670000,0.763670166015625,-1.3530665636062622,0.06780604273080826,0.8411614298820496
1657787293744670000,0.765669921875,-1.3848315477371216,0.08552113175392151,0.8509352803230286
1657787293746670000,0.767670166015625,-1.4086552858352661,0.10751228034496307,0.8600982427597046
1657787293748670000,0.769669921875,-1.4471397399902344,0.1618792861700058,0.8857545852661133
1657787293750669800,0.771669921875,-1.4599679708480835,0.23579397797584534,0.9101892113685608
1657787293752671000,0.7736708984375,-1.463022232055664,0.2834414839744568,0.9181304574012756
1657787293754671000,0.775671142578125,-1.4611896276474,0.384845107793808,0.9285151958465576
1657787293756671700,0.777671630859375,-1.4489723443984985,0.48258355259895325,0.9370672702789307
1657787293758672600,0.779672607421875,-1.4440854787826538,0.5192354321479797,0.9376781582832336
1657787293760672800,0.7816728515625,-1.4373658895492554,0.5717698931694031,0.9382890462875366
1657787293762673000,0.7836728515625,-1.4269812107086182,0.5992587804794312,0.940732479095459
1657787293764672500,0.785672607421875,-1.42637038230896,0.6102544069290161,0.9431759119033813
1657787293766672600,0.787672607421875,-1.4220943450927734,0.6261368989944458,0.9511171579360962
1657787293768672800,0.7896728515625,-1.4208725690841675,0.6444628238677979,0.9663888216018677
1657787293770673000,0.7916728515625,-1.4190399646759033,0.655458390712738,0.9749409556388855
1657787293772672500,0.793672607421875,-1.4220943450927734,0.6866125464439392,0.9938777685165405
1657787293774672400,0.79567236328125,-1.42637038230896,0.7238753437995911,1.0140362977981567
1657787293776672000,0.797672119140625,-1.4996742010116577,0.8680394887924194,1.0335839986801147
1657787293778671000,0.799671142578125,-1.4996742010116577,0.8680394887924194,1.0335839986801147
1657787293780670200,0.801670166015625,-1.4996742010116577,0.8680394887924194,1.0335839986801147
1657787293782669300,0.80366943359375,-1.5155566930770874,0.8808676600456238,1.0293079614639282
1657787293784668700,0.805668701171875,-1.5155566930770874,0.8808676600456238,1.0293079614639282
1657787293786667800,0.807667724609375,-1.550986886024475,0.8833111524581909,1.0183123350143433
1657787293788668000,0.80966796875,-1.568701982498169,0.8741481900215149,1.0109820365905762
1657787293790668000,0.81166796875,-1.606575608253479,0.8417723178863525,0.9914342761039734
1657787293792668200,0.813668212890625,-1.6401731967926025,0.7953465580940247,0.96883225440979
1657787293794668000,0.81566796875,-1.6560556888580322,0.7629706859588623,0.9584475755691528
1657787293796669000,0.8176689453125,-1.6774359941482544,0.6939429044723511,0.93095862865448
1657787293798669800,0.819669921875,-1.6963727474212646,0.6010913848876953,0.9028588533401489
1657787293800669700,0.821669677734375,-1.7043139934539795,0.5479460954666138,0.8900306820869446
1657787293802670600,0.823670654296875,-1.7159204483032227,0.42760565876960754,0.8588765263557434
1657787293804670500,0.82567041015625,-1.718363881111145,0.28955012559890747,0.8295549750328064
1657787293806670600,0.827670654296875,-1.7201964855194092,0.2174680233001709,0.816726803779602
1657787293808670500,0.82967041015625,-1.7165313959121704,0.06230825558304787,0.7910705208778381
1657787293810670600,0.831670654296875,-1.7055357694625854,-0.09346238523721695,0.7678576111793518
1657787293812670500,0.83367041015625,-1.6994271278381348,-0.17043140530586243,0.759305477142334
1657787293814670300,0.83567041015625,-1.683544635772705,-0.3170390725135803,0.7348709106445312
1657787293816669700,0.837669677734375,-1.5888605117797852,-0.8943067193031311,0.45631635189056396
1657787293818668800,0.839668701171875,-1.5888605117797852,-0.8943067193031311,0.45631635189056396
1657787293820668000,0.84166796875,-1.5668693780899048,-0.9566149711608887,0.40133845806121826
1657787293822667000,0.8436669921875,-1.549154281616211,-1.0134254693984985,0.342695415019989
1657787293824667000,0.8456669921875,-1.549154281616211,-1.0134254693984985,0.342695415019989
1657787293826665700,0.847665771484375,-1.5277739763259888,-1.0604621171951294,0.2828305959701538
1657787293828665900,0.849665771484375,-1.5039502382278442,-1.0995573997497559,0.2217440903186798
1657787293830665700,0.851665771484375,-1.4801265001296997,-1.1270463466644287,0.1612684279680252
1657787293832666000,0.853666015625,-1.4379768371582031,-1.1606439352035522,0.04092797264456749
1657787293834666000,0.855666015625,-1.4019356966018677,-1.1643091440200806,-0.07024950534105301
1657787293836667000,0.8576669921875,-1.3854423761367798,-1.158811330795288,-0.12278391420841217
1657787293838667800,0.859667724609375,-1.3585642576217651,-1.1362093687057495,-0.21991148591041565
1657787293840668700,0.861668701171875,-1.3396275043487549,-1.0958921909332275,-0.3078760802745819
1657787293842669600,0.863669677734375,-1.3335188627243042,-1.0751228332519531,-0.34574973583221436
1657787293844670200,0.865670166015625,-1.3213015794754028,-1.0280861854553223,-0.4178318381309509
1657787293846671400,0.86767138671875,-1.3115277290344238,-0.9859365224838257,-0.4807509481906891
1657787293848671200,0.869671142578125,-1.3127493858337402,-0.9651671051979065,-0.5106833577156067
1657787293850670800,0.8716708984375,-1.3078625202178955,-0.9272934198379517,-0.5644394755363464
1657787293852671000,0.8736708984375,-1.3041973114013672,-0.9065240025520325,-0.6145304441452026
1657787293854671000,0.875671142578125,-1.3005321025848389,-0.8998045325279236,-0.6340781450271606
1657787293856670200,0.877670166015625,-1.2858713865280151,-0.8949176073074341,-0.6829473376274109
1657787293858670000,0.879670166015625,-1.2785409688949585,-0.8961393237113953,-0.6963863968849182
1657787293860671000,0.8816708984375,-1.2724323272705078,-0.8936958312988281,-0.7092145681381226
1657787293862670600,0.883670654296875,-1.2602150440216064,-0.8967501521110535,-0.7275404930114746
1657787293864670500,0.88567041015625,-1.246165156364441,-0.9077457785606384,-0.7428121566772461
1657787293866670600,0.887670654296875,-1.2376129627227783,-0.9150761365890503,-0.7470881938934326
1657787293868670500,0.88967041015625,-1.224173903465271,-0.9260717034339905,-0.7519751191139221
1657787293870670300,0.89167041015625,-1.207680583000183,-0.9321803450584412,-0.7525860071182251
1657787293872669400,0.89366943359375,-1.1966849565505981,-0.931569516658783,-0.7525860071182251
1657787293874669300,0.89566943359375,-1.179580807685852,-0.9285151958465576,-0.7440338730812073
1657787293876670200,0.897670166015625,-1.158811330795288,-0.921184778213501,-0.7342600226402283
1657787293878671000,0.899671142578125,-1.1465940475463867,-0.9150761365890503,-0.7269296646118164
1657787293884789200,0.905789306640625,-1.122159481048584,-0.8979719281196594,-0.7177666425704956
1657787293886790100,0.9077900390625,-1.0977247953414917,-0.8778133392333984,-0.7061602473258972
1657787293888790800,0.909790771484375,-1.083064079284668,-0.8655960559844971,-0.7031059265136719
1657787293890791700,0.911791748046875,-1.0598511695861816,-0.8460483551025391,-0.694553792476654
1657787293892791600,0.91379150390625,-1.0335839986801147,-0.8319984674453735,-0.6860016584396362
1657787293894791700,0.915791748046875,-1.0183123350143433,-0.827111542224884,-0.6829473376274109
1657787293896791600,0.91779150390625,-0.9932668805122375,-0.8216137290000916,-0.6737843751907349
1657787293898792000,0.9197919921875,-0.9633345007896423,-0.8130616545677185,-0.665232241153717
1657787293900791300,0.921791259765625,-0.9199630618095398,-0.7898487448692322,-0.6585127115249634
1657787293902790400,0.923790283203125,-0.9199630618095398,-0.7898487448692322,-0.6585127115249634
1657787293904790000,0.9257900390625,-0.8906415104866028,-0.7733554244041443,-0.6530149579048157
1657787293906790000,0.927789794921875,-0.8741481900215149,-0.7623597979545593,-0.6511823534965515
1657787293908790000,0.9297900390625,-0.8454375267028809,-0.740368664264679,-0.6505714654922485
1657787293910790400,0.931790283203125,-0.826500654220581,-0.7238753437995911,-0.646295428276062
1657787293912790300,0.933790283203125,-0.8124507665634155,-0.7141014933586121,-0.645684540271759
1657787293914790400,0.935790283203125,-0.7953465580940247,-0.7018841505050659,-0.6389650702476501
1657787293916790300,0.937790283203125,-0.7825183868408203,-0.6878342628479004,-0.6316346526145935
1657787293918790100,0.9397900390625,-0.7764097452163696,-0.6798930168151855,-0.6261368989944458
1657787293920791000,0.941791015625,-0.759916365146637,-0.656680166721344,-0.6120869517326355
1657787293922791200,0.943791259765625,-0.7464773058891296,-0.6322455406188965,-0.5931501388549805
1657787293924791300,0.945791259765625,-0.7422012686729431,-0.6218608021736145,-0.5803219676017761
1657787293926791700,0.947791748046875,-0.7287622094154358,-0.5992587804794312,-0.5552765130996704
1657787293928791800,0.949791748046875,-0.7116580009460449,-0.5711590051651001,-0.5265658497810364
1657787293930791700,0.951791748046875,-0.7018841505050659,-0.5601634383201599,-0.5088507533073425
1657787293932791800,0.953791748046875,-0.6841690540313721,-0.5338962078094482,-0.4764748811721802
1657787293934792000,0.9557919921875,-0.6603453159332275,-0.5112941861152649,-0.43737950921058655
1657787293936791800,0.957791748046875,-0.6481280326843262,-0.5015203952789307,-0.4190535545349121
1657787293938792000,0.9597919921875,-0.626747727394104,-0.47830748558044434,-0.3830125033855438
1657787293940791000,0.961791015625,-0.5406157374382019,-0.43127086758613586,-0.27550023794174194
1657787293942790100,0.9637900390625,-0.5406157374382019,-0.43127086758613586,-0.27550023794174194
1657787293944789800,0.965789794921875,-0.5283984541893005,-0.42638394236564636,-0.25961771607398987
1657787293946788900,0.967788818359375,-0.5283984541893005,-0.42638394236564636,-0.25961771607398987
1657787293948788200,0.969788330078125,-0.5161811113357544,-0.4239404797554016,-0.24862214922904968
1657787293950787300,0.971787353515625,-0.504574716091156,-0.42088615894317627,-0.24129177629947662
1657787293952787200,0.973787109375,-0.4954117238521576,-0.41722095012664795,-0.22296582162380219
1657787293954787300,0.975787353515625,-0.47280970215797424,-0.4141666293144226,-0.21502456068992615
1657787293956787200,0.977787109375,-0.4508185386657715,-0.41111230850219727,-0.20463985204696655
1657787293958786800,0.979786865234375,-0.44165557622909546,-0.4086688458919525,-0.19792033731937408
1657787293960787700,0.98178759765625,-0.4190535545349121,-0.394618958234787,-0.18936823308467865
1657787293962788600,0.98378857421875,-0.3995058834552765,-0.28466320037841797,-0.23029619455337524
1657787293964788700,0.985788818359375,-0.3891211748123169,-0.16737708449363708,-0.2816088795661926
1657787293966787800,0.987787841796875,-0.35185837745666504,0.19608774781227112,-0.4605923891067505
1657787293968788000,0.9897880859375,-0.313373863697052,0.48319441080093384,-0.6340781450271606
1657787293970787600,0.99178759765625,-0.2932153046131134,0.5497786998748779,-0.6872233748435974
1657787293972787500,0.993787353515625,-0.2541199326515198,0.6114761233329773,-0.7422012686729431
1657787293974787600,0.99578759765625,-0.18570303916931152,0.7049384713172913,-0.769690215587616
1657787293976787500,0.997787353515625,-0.14538592100143433,0.7837401032447815,-0.7861835956573486
1657787293978787600,0.99978759765625,-0.04398229718208313,0.9639453291893005,-0.836885392665863
1657787293980786700,1.00178662109375,0.33597588539123535,1.2919800281524658,-1.004873275756836
1657787293982785800,1.003785888671875,0.39156460762023926,1.310916781425476,-1.026253581047058
1657787293984785200,1.00578515625,0.39156460762023926,1.310916781425476,-1.026253581047058
1657787293986784300,1.0077841796875,0.39156460762023926,1.310916781425476,-1.026253581047058
1657787293988784000,1.0097841796875,0.39156460762023926,1.310916781425476,-1.026253581047058
1657787293990784300,1.0117841796875,0.48869219422340393,1.3335188627243042,-1.0586295127868652
1657787293992784100,1.0137841796875,0.5821545720100403,1.3396275043487549,-1.0781772136688232
1657787293994784000,1.015783935546875,0.6249151229858398,1.33168625831604,-1.0836749076843262
1657787293996784000,1.0177841796875,0.7079927921295166,1.299310326576233,-1.0848966836929321
1657787293998784000,1.019783935546875,0.779464066028595,1.225395679473877,-1.0793988704681396
1657787294000785400,1.021785400390625,0.8142833709716797,1.166752576828003,-1.0702359676361084
1657787294002786300,1.023786376953125,0.8790351152420044,1.0122036933898926,-1.0464121103286743
1657787294004787200,1.025787109375,0.9468411207199097,0.8203920125961304,-1.0097602605819702
1657787294006788000,1.0277880859375,0.9822713136672974,0.7141014933586121,-0.988379955291748
1657787294008788200,1.029788330078125,1.0488556623458862,0.50335294008255,-0.9340129494667053
1657787294010789000,1.0317890625,1.1099421977996826,0.31154128909111023,-0.8680394887924194
1657787294012789200,1.033789306640625,1.140485405921936,0.22663100063800812,-0.8326093554496765
1657787294014789000,1.0357890625,1.1948524713516235,0.07513642311096191,-0.7562511563301086
1657787294016789200,1.037789306640625,1.236391305923462,-0.05497787147760391,-0.6823364496231079
1657787294018789400,1.039789306640625,1.2541064023971558,-0.11301007121801376,-0.6407976150512695
1657787294020788500,1.04178857421875,1.2736539840698242,-0.44287729263305664,-0.3286454975605011
1657787294022787600,1.04378759765625,1.2596040964126587,-0.4715879559516907,-0.29077184200286865
1657787294024786700,1.04578662109375,1.2596040964126587,-0.4715879559516907,-0.29077184200286865
1657787294026786800,1.047786865234375,1.244943380355835,-0.49846604466438293,-0.25106561183929443
1657787294028786200,1.0497861328125,1.2272282838821411,-0.5210680365562439,-0.21074850857257843
1657787294030786300,1.051786376953125,1.2272282838821411,-0.5210680365562439,-0.21074850857257843
1657787294032786400,1.053786376953125,1.207680583000183,-0.5442809462547302,-0.17287486791610718
1657787294034786300,1.055786376953125,1.158811330795288,-0.5833762884140015,-0.08857546001672745
1657787294036786000,1.057785888671875,1.131933331489563,-0.6035348773002625,-0.04642575979232788
1657787294038785800,1.059785888671875,1.0714576244354248,-0.6328563690185547,0.03481931984424591
1657787294040786700,1.06178662109375,1.0122036933898926,-0.6591235995292664,0.12278391420841217
1657787294042787600,1.06378759765625,0.979216992855072,-0.66584312915802,0.16859880089759827
1657787294044788200,1.065788330078125,0.9175195693969727,-0.6866125464439392,0.2626720666885376
1657787294046789000,1.0677890625,0.8588765263557434,-0.7250970602035522,0.35063666105270386
1657787294048789200,1.069789306640625,0.8344419002532959,-0.7544185519218445,0.39217549562454224
1657787294050789600,1.07178955078125,0.7867944240570068,-0.8326093554496765,0.4740314185619354
1657787294052789800,1.073789794921875,0.7452555894851685,-0.9346238374710083,0.5461135506629944
1657787294054790000,1.075789794921875,0.7312057018280029,-0.9969320893287659,0.5791002511978149
1657787294056789500,1.07778955078125,0.7000515460968018,-1.1337659358978271,0.6383541822433472
1657787294058789400,1.079789306640625,0.6780604124069214,-1.2870930433273315,0.6896668672561646
1657787294060788000,1.0817880859375,0.6664539575576782,-1.4526375532150269,0.7367035150527954
1657787294062788000,1.0837880859375,0.6633996367454529,-1.5351043939590454,0.7586946487426758
1657787294064788000,1.0857880859375,0.665232241153717,-1.7018705606460571,0.8045095205307007
1657787294066788000,1.0877880859375,0.6682865619659424,-1.7818939685821533,0.8234463334083557
1657787294068788500,1.08978857421875,0.6780604124069214,-1.9309450387954712,0.8686503767967224
1657787294070788900,1.091788818359375,0.694553792476654,-2.0592267513275146,0.912021815776825
1657787294072788700,1.093788818359375,0.7073819637298584,-2.118480682373047,0.9334021210670471
1657787294074788900,1.095788818359375,0.7318165898323059,-2.2174408435821533,0.9743300676345825
1657787294076788700,1.097788818359375,0.7580837607383728,-2.3035728931427,1.009149432182312
1657787294078788600,1.09978857421875,0.7733554244041443,-2.3408355712890625,1.026253581047058
1657787294080790000,1.1017900390625,0.8045095205307007,-2.411695957183838,1.0543533563613892
1657787294082790700,1.103790771484375,0.8332201838493347,-2.478891134262085,1.076344609260559
1657787294084791600,1.10579150390625,0.8484918475151062,-2.514932155609131,1.083064079284668
1657787294086792200,1.107792236328125,0.8753699064254761,-2.590679407119751,1.0946705341339111
1657787294088793000,1.10979296875,0.9010262489318848,-2.674368143081665,1.0965031385421753
1657787294090793000,1.11179296875,0.9126327037811279,-2.7232372760772705,1.0983357429504395
1657787294092792800,1.113792724609375,0.9419541954994202,-2.8344147205352783,1.0946705341339111
1657787294094793700,1.115793701171875,0.9718865752220154,-2.948035717010498,1.0873401165008545
1657787294096794000,1.117794189453125,0.988379955291748,-3.000570058822632,1.0787880420684814
1657787294098794000,1.1197939453125,1.0207557678222656,-3.1117475032806396,1.0671815872192383
1657787294100793300,1.12179345703125,1.064738154411316,-3.271183490753174,1.0390818119049072
1657787294102792400,1.12379248046875,1.0787880420684814,-3.3212742805480957,1.0250319242477417
1657787294104792300,1.125792236328125,1.0922271013259888,-3.3731977939605713,1.0140362977981567
1657787294106792400,1.12779248046875,1.1184942722320557,-3.472769021987915,0.9847147464752197
1657787294108792300,1.129792236328125,1.130711555480957,-3.5210273265838623,0.9682214260101318
1657787294110792000,1.1317919921875,1.1630873680114746,-3.6108243465423584,0.9388998746871948
1657787294112791800,1.133791748046875,1.197906732559204,-3.6890151500701904,0.9077457785606384
1657787294114791700,1.135791748046875,1.217454433441162,-3.724445343017578,0.8936958312988281
1657787294116792000,1.1377919921875,1.2559388875961304,-3.7959165573120117,0.8619308471679688
1657787294118792200,1.139792236328125,1.2907582521438599,-3.8698313236236572,0.8332201838493347
1657787294120792800,1.141792724609375,1.2999212741851807,-3.910759210586548,0.827111542224884
1657787294122793500,1.14379345703125,1.3182471990585327,-4.000556468963623,0.807563841342926
1657787294124793600,1.145793701171875,1.3255776166915894,-4.105014324188232,0.7965682744979858
1657787294126793500,1.14779345703125,1.318858027458191,-4.1612138748168945,0.7935139536857605
1657787294128793600,1.149793701171875,1.3060299158096313,-4.281554698944092,0.7922922372817993
1657787294130793200,1.151793212890625,1.282817006111145,-4.398229598999023,0.8008443117141724
1657787294132793300,1.15379345703125,1.2657127380371094,-4.450764179229736,0.8057312369346619
1657787294134793500,1.15579345703125,1.2315043210983276,-4.55033540725708,0.8240572214126587
1657787294136793300,1.15779345703125,1.1905763149261475,-4.630969524383545,0.8527678847312927
1657787294138793500,1.15979345703125,1.1722503900527954,-4.662734508514404,0.8692612648010254
1657787294140792300,1.161792236328125,1.018923282623291,-4.822170257568359,1.0409144163131714
1657787294142791400,1.16379150390625,0.9957103729248047,-4.845993995666504,1.0677924156188965
1657787294144790500,1.16579052734375,0.9957103729248047,-4.845993995666504,1.0677924156188965
1657787294146789600,1.16778955078125,0.9957103729248047,-4.845993995666504,1.0677924156188965
1657787294148789500,1.16978955078125,0.9737191796302795,-4.867374420166016,1.0958921909332275
1657787294150789400,1.171789306640625,0.9468411207199097,-4.89119815826416,1.1270463466644287
1657787294152789200,1.173789306640625,0.9010262489318848,-4.941288948059082,1.1832460165023804
1657787294154789600,1.17578955078125,0.8558222055435181,-4.994434356689453,1.2327260971069336
1657787294156789500,1.17778955078125,0.8344419002532959,-5.020090579986572,1.2583824396133423
1657787294158789600,1.17978955078125,0.788016140460968,-5.070181369781494,1.303586483001709
1657787294160790500,1.18179052734375,0.7446447610855103,-5.120272636413574,1.3377948999404907
1657787294162791200,1.183791259765625,0.7220427393913269,-5.144707202911377,1.3518447875976562
1657787294164791300,1.185791259765625,0.6805039048194885,-5.187467575073242,1.3781119585037231
1657787294166791200,1.187791259765625,0.6389650702476501,-5.217400074005127,1.38849675655365
1657787294168791300,1.189791259765625,0.6157521605491638,-5.229617595672607,1.3939944505691528
1657787294170791700,1.191791748046875,0.5845980644226074,-5.238780498504639,1.3939944505691528
1657787294172791600,1.19379150390625,0.5558874011039734,-5.230228424072266,1.386053204536438
1657787294174791700,1.195791748046875,0.5448917746543884,-5.2161784172058105,1.380555510520935
1657787294176791800,1.197791748046875,0.5271766781806946,-5.18196964263916,1.3622294664382935
1657787294178791700,1.199791748046875,0.513126790523529,-5.1324896812438965,1.3371840715408325
1657787294180790800,1.201790771484375,0.4697553813457489,-4.883256912231445,1.2046263217926025
1657787294182789600,1.20378955078125,0.4697553813457489,-4.883256912231445,1.2046263217926025
1657787294184788700,1.205788818359375,0.4697553813457489,-4.883256912231445,1.2046263217926025
1657787294186787800,1.207787841796875,0.4605923891067505,-4.832554817199707,1.1850786209106445
1657787294188787700,1.20978759765625,0.4605923891067505,-4.832554817199707,1.1850786209106445
1657787294190787600,1.21178759765625,0.4447098970413208,-4.708549499511719,1.1423180103302002
1657787294192787500,1.213787353515625,0.43249258399009705,-4.63891077041626,1.1203268766403198
1657787294194786600,1.21578662109375,0.4080579876899719,-4.496579170227051,1.0769554376602173
1657787294196786700,1.21778662109375,0.3842342495918274,-4.343251705169678,1.0286970138549805
1657787294198786600,1.21978662109375,0.37079519033432007,-4.262617588043213,1.0030407905578613
1657787294200787500,1.221787353515625,0.34086281061172485,-4.103792667388916,0.9547823667526245
1657787294202788400,1.223788330078125,0.31459560990333557,-3.941913366317749,0.9046914577484131
1657787294204789200,1.225789306640625,0.3023782968521118,-3.863111734390259,0.8784242272377014
1657787294206790100,1.2277900390625,0.2742784917354584,-3.7091736793518066,0.8307767510414124
1657787294208790000,1.2297900390625,0.25045475363731384,-3.5631768703460693,0.7855727076530457
1657787294210790400,1.231790283203125,0.2370157092809677,-3.494760036468506,0.7641924023628235
1657787294212790800,1.233790771484375,0.21319197118282318,-3.3603696823120117,0.7299839854240417
1657787294214789600,1.23578955078125,0.1918116807937622,-3.2400293350219727,0.7049384713172913
1657787294216789800,1.237789794921875,0.1814269721508026,-3.181997060775757,0.694553792476654
1657787294218789600,1.23978955078125,0.16065755486488342,-3.0726521015167236,0.6817256212234497
1657787294220788700,1.241788818359375,0.08002334833145142,-2.737898111343384,0.6982190012931824
1657787294222787800,1.243787841796875,0.08002334833145142,-2.737898111343384,0.6982190012931824
1657787294224787200,1.245787109375,0.07147123664617538,-2.711019992828369,0.7043276429176331
1657787294226786300,1.247786376953125,0.06475171446800232,-2.6841418743133545,0.7116580009460449
1657787294228786200,1.2497861328125,0.06475171446800232,-2.6841418743133545,0.7116580009460449
1657787294230785000,1.251784912109375,0.06475171446800232,-2.6841418743133545,0.7116580009460449
1657787294232785000,1.253784912109375,0.048258353024721146,-2.6401596069335938,0.7281513810157776
1657787294234785000,1.255784912109375,0.04092797264456749,-2.6224443912506104,0.7391469478607178
1657787294236785000,1.257784912109375,0.02626720629632473,-2.5949554443359375,0.7617489695549011
1657787294238784800,1.25978466796875,0.014049900695681572,-2.5784621238708496,0.788016140460968
1657787294240785700,1.26178564453125,0.010995574295520782,-2.568077564239502,0.8008443117141724
1657787294242786600,1.26378662109375,-0.0012217304902151227,-2.556471109390259,0.8295549750328064
1657787294244787500,1.265787353515625,-0.009773843921720982,-2.5479190349578857,0.8600982427597046
1657787294246788400,1.267788330078125,-0.012828170321881771,-2.5442538261413574,0.8747590184211731
1657787294248788000,1.2697880859375,-0.01710422709584236,-2.5424211025238037,0.9053022861480713
1657787294250788600,1.27178857421875,-0.022602014243602753,-2.5411994457244873,0.931569516658783
1657787294252788500,1.27378857421875,-0.022602014243602753,-2.5418102741241455,0.9462302923202515
1657787294254789600,1.27578955078125,-0.02015855349600315,-2.539977788925171,0.970054030418396
1657787294256789500,1.27778955078125,-0.010995574295520782,-2.5326473712921143,0.9914342761039734
1657787294258789600,1.27978955078125,-0.00733038317412138,-2.5302038192749023,0.9957103729248047
1657787294260788700,1.281788818359375,0.014049900695681572,-2.5253169536590576,1.0085384845733643
1657787294262788900,1.283788818359375,0.021380282938480377,-2.5222625732421875,1.0097602605819702
1657787294264788700,1.285788818359375,0.029932396486401558,-2.5228734016418457,1.0054842233657837
1657787294266788600,1.28778857421875,0.045204028487205505,-2.520430088043213,0.9944885969161987
1657787294268788700,1.289788818359375,0.05864306539297104,-2.517986536026001,0.9779952764511108
1657787294270788400,1.291788330078125,0.06536258012056351,-2.5130996704101562,0.9682214260101318
1657787294272788200,1.293788330078125,0.07452555745840073,-2.5021040439605713,0.9450085163116455
1657787294274788400,1.295788330078125,0.08552113175392151,-2.487443208694458,0.9187413454055786
1657787294276788200,1.297788330078125,0.0861319974064827,-2.4752259254455566,0.9071348905563354
1657787294278788000,1.2997880859375,0.09468411654233932,-2.451402187347412,0.8778133392333984
1657787294280789000,1.3017890625,0.1014036312699318,-2.41719388961792,0.8521569967269897
1657787294282790100,1.3037900390625,0.10384709388017654,-2.39825701713562,0.8381071090698242
1657787294284791000,1.305791015625,0.10995574295520782,-2.356107234954834,0.8118399381637573
1657787294286792000,1.3077919921875,0.11484266817569733,-2.308459758758545,0.7874053120613098
1657787294288791800,1.309791748046875,0.11178833991289139,-2.286468505859375,0.7751879692077637
1657787294290792700,1.311792724609375,0.11545353382825851,-2.232712507247925,0.7544185519218445
1657787294292793300,1.31379345703125,0.11301007121801376,-2.1789562702178955,0.7305948138237
1657787294294793200,1.315793212890625,0.11301007121801376,-2.152078151702881,0.7202101349830627
1657787294296793300,1.31779345703125,0.10995574295520782,-2.0971004962921143,0.7031059265136719
1657787294298793200,1.319793212890625,0.10567969083786011,-2.040289878845215,0.6860016584396362
1657787294300792600,1.32179248046875,0.09651670604944229,-1.95965576171875,0.6695083379745483
1657787294302791700,1.323791748046875,0.09651670604944229,-1.95965576171875,0.6695083379745483
1657787294304791800,1.325791748046875,0.08674286305904388,-1.9138407707214355,0.6597344875335693
1657787294306791700,1.327791748046875,0.08002334833145142,-1.891238808631897,0.655458390712738
1657787294308792000,1.3297919921875,0.06414084881544113,-1.8484781980514526,0.6536257863044739
1657787294310791400,1.33179150390625,0.04581489413976669,-1.8112154006958008,0.6505714654922485
1657787294312791600,1.33379150390625,0.0403171069920063,-1.7910568714141846,0.6511823534965515
1657787294314791400,1.33579150390625,0.019547687843441963,-1.7605136632919312,0.6524040699005127
1657787294316791300,1.337791259765625,0.0006108652451075613,-1.730581283569336,0.6591235995292664
1657787294318791400,1.33979150390625,-0.009773843921720982,-1.7171422243118286,0.6627888083457947
1657787294320792000,1.3417919921875,-0.03298672288656235,-1.690264105796814,0.6701191663742065
1657787294322792200,1.343792236328125,-0.05619960278272629,-1.6694947481155396,0.6835582256317139
1657787294324792000,1.3457919921875,-0.06414084881544113,-1.6615535020828247,0.6927211880683899
1657787294326792200,1.347792236328125,-0.08491026610136032,-1.645671010017395,0.7086036801338196
1657787294328792000,1.3497919921875,-0.10445795953273773,-1.63467538356781,0.7305948138237
1657787294330792200,1.351792236328125,-0.11056660860776901,-1.633453607559204,0.7397578358650208
1657787294332793300,1.35379345703125,-0.1270599663257599,-1.6322319507598877,0.7611380815505981
1657787294334793200,1.355793212890625,-0.14294247329235077,-1.6340645551681519,0.7898487448692322
1657787294336793300,1.35779345703125,-0.14782938361167908,-1.6383405923843384,0.8045095205307007
1657787294338793500,1.35979345703125,-0.15760323405265808,-1.6401731967926025,0.8326093554496765
1657787294340792600,1.36179248046875,-0.17348572611808777,-1.6853772401809692,0.9547823667526245
1657787294342791700,1.363791748046875,-0.17348572611808777,-1.6853772401809692,0.9547823667526245
1657787294344790800,1.365790771484375,-0.17348572611808777,-1.6853772401809692,0.9547823667526245
1657787294346790000,1.367789794921875,-0.16982053220272064,-1.69148588180542,0.9724974632263184
1657787294348790000,1.3697900390625,-0.16982053220272064,-1.69148588180542,0.9724974632263184
1657787294350790100,1.3717900390625,-0.17104226350784302,-1.7122552394866943,1.0073168277740479
1657787294352790800,1.373790771484375,-0.16920967400074005,-1.7330247163772583,1.0458012819290161
1657787294354790700,1.375790771484375,-0.16554448008537292,-1.7440202236175537,1.0653489828109741
1657787294356790800,1.377790771484375,-0.15943582355976105,-1.7715091705322266,1.10139000415802
1657787294358790700,1.379790771484375,-0.15332718193531036,-1.7928894758224487,1.13926362991333
1657787294360791300,1.381791259765625,-0.14538592100143433,-1.8093829154968262,1.1612548828125
1657787294362792200,1.383792236328125,-0.13255776464939117,-1.834428310394287,1.1966849565505981
1657787294364792300,1.385792236328125,-0.12278391420841217,-1.8600846529006958,1.2357803583145142
1657787294366792400,1.38779248046875,-0.11545353382825851,-1.8765780925750732,1.254717230796814
1657787294368792300,1.389792236328125,-0.09773843735456467,-1.9052886962890625,1.2883148193359375
1657787294370792400,1.39179248046875,-0.08429940044879913,-1.9260581731796265,1.321912407875061
1657787294372792600,1.39379248046875,-0.0757472887635231,-1.93766450881958,1.3371840715408325
1657787294374792400,1.39579248046875,-0.054367005825042725,-1.965153455734253,1.36955988407135
1657787294376792600,1.39779248046875,-0.039706241339445114,-1.9908097982406616,1.4019356966018677
1657787294378792400,1.39979248046875,-0.02871066704392433,-2.0079140663146973,1.416596531867981
1657787294380791600,1.40179150390625,0.0757472887635231,-2.1001546382904053,1.5070046186447144
1657787294382790700,1.403790771484375,0.0757472887635231,-2.1001546382904053,1.5070046186447144
1657787294384789800,1.405789794921875,0.08918632566928864,-2.104430675506592,1.508837103843689
1657787294386788900,1.407788818359375,0.10445795953273773,-2.107485055923462,1.5137240886688232
1657787294388788000,1.4097880859375,0.10445795953273773,-2.107485055923462,1.5137240886688232
1657787294390787300,1.411787353515625,0.10445795953273773,-2.107485055923462,1.5137240886688232
1657787294392785200,1.41378515625,0.12034045159816742,-2.1111502647399902,1.5167783498764038
1657787294394785000,1.415784912109375,0.1514945775270462,-2.1142046451568604,1.5149458646774292
1657787294396784600,1.41778466796875,0.16493362188339233,-2.1123719215393066,1.511891484260559
1657787294398784800,1.41978466796875,0.19364428520202637,-2.116037130355835,1.5027284622192383
1657787294400784600,1.42178466796875,0.22296582162380219,-2.110539436340332,1.4844025373458862
1657787294402784800,1.42378466796875,0.24007004499435425,-2.1038198471069336,1.474017858505249
1657787294404791000,1.425791015625,0.2687807083129883,-2.094046115875244,1.4471397399902344
1657787294406801200,1.42780126953125,0.30054569244384766,-2.0873265266418457,1.4159855842590332
1657787294408801500,1.429801513671875,0.32070425152778625,-2.0806069374084473,1.3982704877853394
1657787294410799000,1.431799072265625,0.35613444447517395,-2.068389654159546,1.359175205230713
1657787294412800500,1.433800537109375,0.39706242084503174,-2.05433988571167,1.313360333442688
1657787294414800600,1.435800537109375,0.4190535545349121,-2.045787811279297,1.29381263256073
1657787294416800800,1.43780078125,0.46547931432724,-2.0341813564300537,1.243721604347229
1657787294418801000,1.43980078125,0.5143485069274902,-2.0170769691467285,1.188132882118225
1657787294420798500,1.441798583984375,0.7489207983016968,-1.9889771938323975,0.9352346658706665
1657787294422796000,1.443796142578125,0.7489207983016968,-1.9889771938323975,0.9352346658706665
1657787294424793900,1.4457939453125,0.7819074988365173,-1.9889771938323975,0.8991936445236206
1657787294426791700,1.447791748046875,0.8148942589759827,-1.984701156616211,0.8607091307640076
1657787294428790500,1.44979052734375,0.8148942589759827,-1.984701156616211,0.8607091307640076
1657787294430788900,1.451788818359375,0.8148942589759827,-1.984701156616211,0.8607091307640076
1657787294432788700,1.453788818359375,0.8478809595108032,-1.984701156616211,0.8222246170043945
1657787294434788900,1.455788818359375,0.9150761365890503,-1.9828685522079468,0.7464773058891296
1657787294436788700,1.457788818359375,0.9517280459403992,-1.9816468954086304,0.7055493593215942
1657787294438788900,1.459788818359375,1.024420976638794,-1.9743164777755737,0.6255260109901428
1657787294440789000,1.4617890625,1.0977247953414917,-1.9645426273345947,0.5442809462547302
1657787294442820900,1.46382080078125,1.1716395616531372,-1.9443840980529785,0.4593706727027893
1657787294444821000,1.465821044921875,1.2101240158081055,-1.9327776432037354,0.4178318381309509
1657787294446820900,1.46782080078125,1.2858713865280151,-1.9040669202804565,0.3323107063770294
1657787294448821000,1.469821044921875,1.359786033630371,-1.872912883758545,0.242513507604599
1657787294450820900,1.47182080078125,1.398881435394287,-1.8570303916931152,0.20402899384498596
1657787294452822000,1.473822021484375,1.4752395153045654,-1.8234328031539917,0.11301007121801376
1657787294454822000,1.47582177734375,1.5125023126602173,-1.80510675907135,0.06780604273080826
1657787294456821800,1.47782177734375,1.5888605117797852,-1.7678439617156982,-0.01771509274840355
1657787294458822400,1.479822509765625,1.6615535020828247,-1.7299703359603882,-0.10201449692249298
1657787294460819700,1.48181982421875,1.7763961553573608,-1.6756033897399902,-0.23396138846874237
1657787294462819600,1.483819580078125,1.7763961553573608,-1.6756033897399902,-0.23396138846874237
1657787294464819500,1.4858193359375,1.8527542352676392,-1.6450600624084473,-0.32131510972976685
1657787294466821400,1.4878212890625,1.8906279802322388,-1.6297885179519653,-0.36163222789764404
1657787294468821200,1.4898212890625,1.965153455734253,-1.5974125862121582,-0.45204028487205505
1657787294470821000,1.491821044921875,2.0421226024627686,-1.5632041692733765,-0.5351179838180542
1657787294472821000,1.493821044921875,2.0806069374084473,-1.549154281616211,-0.5754350423812866
1657787294474821000,1.495821044921875,2.155132532119751,-1.5167783498764038,-0.656680166721344
1657787294476821000,1.497821044921875,2.2321016788482666,-1.4886785745620728,-0.7318165898323059
1657787294478820900,1.49982080078125,2.2675318717956543,-1.4752395153045654,-0.7672467231750488
1657787294480821000,1.501821044921875,2.3408355712890625,-1.4453071355819702,-0.8411614298820496
1657787294482820900,1.50382080078125,2.4159719944000244,-1.4147639274597168,-0.9101892113685608
1657787294484820700,1.50582080078125,2.453845739364624,-1.3982704877853394,-0.9450085163116455
1657787294486820900,1.50782080078125,2.5271494388580322,-1.3616186380386353,-1.0097602605819702
1657787294488820700,1.50982080078125,2.598620653152466,-1.3213015794754028,-1.0726794004440308
1657787294490820900,1.51182080078125,2.6364943981170654,-1.2986994981765747,-1.1074986457824707
1657787294492820700,1.51382080078125,2.7012460231781006,-1.2577714920043945,-1.169806957244873
1657787294494820900,1.51582080078125,2.766608715057373,-1.214400053024292,-1.2357803583145142
1657787294496821000,1.517821044921875,2.8020389080047607,-1.1936306953430176,-1.2663236856460571
1657787294498820900,1.51982080078125,2.8600711822509766,-1.1527026891708374,-1.3274102210998535
1657787294500820000,1.521820068359375,2.9822440147399902,-1.076344609260559,-1.4422528743743896
1657787294502818000,1.523818115234375,2.9822440147399902,-1.076344609260559,-1.4422528743743896
1657787294504818200,1.525818115234375,3.012176513671875,-1.053742527961731,-1.4703526496887207
1657787294506818600,1.527818603515625,3.067765235900879,-1.0134254693984985,-1.5265522003173828
1657787294508818400,1.529818359375,3.1001410484313965,-0.9908234477043152,-1.5534303188323975
1657787294510818300,1.531818359375,3.1581733226776123,-0.950506329536438,-1.606575608253479
1657787294512818000,1.53381787109375,3.21559476852417,-0.9101892113685608,-1.655444860458374
1657787294514818000,1.535818115234375,3.2418618202209473,-0.8894197940826416,-1.6768250465393066
1657787294516818000,1.53781787109375,3.2986724376678467,-0.8478809595108032,-1.7275269031524658
1657787294518817800,1.53981787109375,3.354871988296509,-0.8069530129432678,-1.7733417749404907
1657787294520818700,1.541818603515625,3.377473831176758,-0.7849618196487427,-1.7959438562393188
1657787294522818800,1.54381884765625,3.4263432025909424,-0.7458664774894714,-1.8374826908111572
1657787294524818700,1.545818603515625,3.472769021987915,-0.7012733221054077,-1.8777997493743896
1657787294526818000,1.547818115234375,3.4959816932678223,-0.6829473376274109,-1.8961256742477417
1657787294528818000,1.54981787109375,3.5436291694641113,-0.6426302194595337,-1.9370536804199219
1657787294530818000,1.551818115234375,3.583946466445923,-0.607810914516449,-1.976149082183838
1657787294532818000,1.55381787109375,3.6053266525268555,-0.5870414972305298,-1.995696783065796
1657787294534818300,1.555818359375,3.6499197483062744,-0.5564982295036316,-2.034792184829712
1657787294536818200,1.557818115234375,3.6939022541046143,-0.5296201705932617,-2.070833206176758
1657787294538818300,1.559818359375,3.718947649002075,-0.5186246037483215,-2.0891592502593994
1657787294540817400,1.5618173828125,3.8838813304901123,-0.45265114307403564,-2.2094995975494385
1657787294542816500,1.56381640625,3.908315896987915,-0.4440990388393402,-2.2211060523986816
1657787294544815600,1.565815673828125,3.908315896987915,-0.4440990388393402,-2.2211060523986816
1657787294546814700,1.567814697265625,3.908315896987915,-0.4440990388393402,-2.2211060523986816
1657787294548814600,1.569814697265625,3.9376373291015625,-0.43615779280662537,-2.2382102012634277
1657787294550814700,1.571814697265625,3.959017753601074,-0.4282165467739105,-2.255314588546753
1657787294552814600,1.573814697265625,4.00788688659668,-0.4178318381309509,-2.282803535461426
1657787294554814500,1.575814453125,4.050647258758545,-0.41111230850219727,-2.309070587158203
1657787294556814300,1.577814453125,4.073249340057373,-0.40744712948799133,-2.322509765625
1657787294558814500,1.579814453125,4.117842674255371,-0.40622538328170776,-2.3493876457214355
1657787294560815400,1.5818154296875,4.160603046417236,-0.4080579876899719,-2.3744332790374756
1657787294562816000,1.58381591796875,4.185648441314697,-0.41111230850219727,-2.387261390686035
1657787294564816100,1.585816162109375,4.23207426071167,-0.41722095012664795,-2.414750337600708
1657787294566815700,1.587815673828125,4.281554698944092,-0.4202753007411957,-2.439795732498169
1657787294568815900,1.58981591796875,4.305378437042236,-0.423329621553421,-2.4526238441467285
1657787294570816000,1.59181591796875,4.356690883636475,-0.4251621961593628,-2.484389066696167
1657787294572816100,1.593816162109375,4.4037275314331055,-0.42149701714515686,-2.5106561183929443
1657787294574816300,1.595816162109375,4.426329612731934,-0.4196644127368927,-2.5228734016418457
1657787294576816000,1.597816162109375,4.472144603729248,-0.42088615894317627,-2.5558602809906006
1657787294578815700,1.599815673828125,4.519181251525879,-0.4202753007411957,-2.5815165042877197
1657787294580814800,1.60181494140625,4.675562381744385,-0.4440990388393402,-2.6926939487457275
1657787294582814000,1.60381396484375,4.69572114944458,-0.4489859640598297,-2.7061331272125244
1657787294584813000,1.60581298828125,4.710381984710693,-0.45631635189056396,-2.721404552459717
1657787294586812200,1.607812255859375,4.710381984710693,-0.45631635189056396,-2.721404552459717
1657787294588811300,1.609811279296875,4.710381984710693,-0.45631635189056396,-2.721404552459717
1657787294590810400,1.611810302734375,4.728096961975098,-0.4605923891067505,-2.7366762161254883
1657787294592810500,1.613810546875,4.728096961975098,-0.4605923891067505,-2.7366762161254883
1657787294594810400,1.615810302734375,4.760472774505615,-0.47769662737846375,-2.7629435062408447
1657787294596810000,1.61781005859375,4.792237758636475,-0.4948008358478546,-2.7959301471710205
1657787294598810000,1.61981005859375,4.807509422302246,-0.5051855444908142,-2.8130345344543457
1657787294600810000,1.62181005859375,4.838052749633789,-0.5216789245605469,-2.8435776233673096
1657787294602810000,1.62381005859375,4.866763591766357,-0.5400048494338989,-2.8771753311157227
1657787294604810000,1.62581005859375,4.880813121795654,-0.5467243790626526,-2.8930578231811523
1657787294606810000,1.62781005859375,4.908302307128906,-0.5644394755363464,-2.927877187728882
1657787294608807000,1.629806884765625,4.933347702026367,-0.5839871764183044,-2.965139865875244
1657787294610806500,1.631806640625,4.944343090057373,-0.5949827432632446,-2.981022357940674
1657787294612806400,1.633806396484375,4.967555999755859,-0.6145304441452026,-3.0164525508880615
1657787294614806500,1.635806640625,4.991379737854004,-0.6383541822433472,-3.0549371242523193
1657787294616806400,1.637806396484375,5.002375602722168,-0.6517932415008545,-3.0720412731170654
1657787294618806300,1.63980615234375,5.024977684020996,-0.6817256212234497,-3.109304189682007
1657787294620803600,1.641803466796875,5.130657196044922,-0.8032878041267395,-3.243694543838501
1657787294622801200,1.64380126953125,5.148983001708984,-0.8130616545677185,-3.2559118270874023
1657787294624798700,1.645798828125,5.1685309410095215,-0.8289441466331482,-3.266907215118408
1657787294626796800,1.647796875,5.1685309410095215,-0.8289441466331482,-3.266907215118408
1657787294628795600,1.649795654296875,5.1685309410095215,-0.8289441466331482,-3.266907215118408
1657787294630795800,1.651795654296875,5.185635089874268,-0.8387179970741272,-3.2785136699676514
1657787294632796000,1.6537958984375,5.208237171173096,-0.8503243923187256,-3.286454916000366
1657787294634795800,1.655795654296875,5.229617595672607,-0.8558222055435181,-3.294396162033081
1657787294636795600,1.657795654296875,5.275432109832764,-0.8692612648010254,-3.306002616882324
1657787294638794500,1.65979443359375,5.330410003662109,-0.8784242272377014,-3.3072245121002197
1657787294640817400,1.6618173828125,5.357288360595703,-0.8802568316459656,-3.305391788482666
1657787294642817500,1.663817626953125,5.414098739624023,-0.8845328688621521,-3.2980613708496094
1657787294644811500,1.6658115234375,5.47213077545166,-0.8875871896743774,-3.2840116024017334
1657787294646811400,1.667811279296875,5.5008416175842285,-0.8900306820869446,-3.274848461151123
1657787294648811500,1.6698115234375,5.556430339813232,-0.8894197940826416,-3.2479705810546875
1657787294650811400,1.671811279296875,5.608964443206787,-0.8881980776786804,-3.2168164253234863
1657787294652811500,1.6738115234375,5.63278865814209,-0.8894197940826416,-3.2003231048583984
1657787294654811400,1.675811279296875,5.678603172302246,-0.8906415104866028,-3.155118942260742
1657787294656811300,1.677811279296875,5.719531059265137,-0.8967501521110535,-3.107471466064453
1657787294658811100,1.67981103515625,5.733581066131592,-0.8985827565193176,-3.078760862350464
1657787294660808700,1.68180859375,5.769622325897217,-0.9126327037811279,-2.9822440147399902
1657787294662806000,1.683805908203125,5.7800068855285645,-0.9156870245933533,-2.9492573738098145
1657787294664806100,1.68580615234375,5.7885589599609375,-0.9199630618095398,-2.9138271808624268
1657787294666806000,1.687805908203125,5.7971110343933105,-0.9248499870300293,-2.83380389213562
1657787294668806000,1.689805908203125,5.7940568923950195,-0.9260717034339905,-2.7458393573760986
1657787294670805500,1.691805419921875,5.7885589599609375,-0.9266825914382935,-2.7012460231781006
1657787294672805400,1.693805419921875,5.773287296295166,-0.9279043078422546,-2.6035077571868896
1657787294674805500,1.695805419921875,5.7494635581970215,-0.9285151958465576,-2.503936529159546
1657787294676805400,1.697805419921875,5.732359409332275,-0.9248499870300293,-2.4520130157470703
1657787294678805200,1.69980517578125,5.693264007568359,-0.9205739498138428,-2.3408355712890625
1657787294680805400,1.701805419921875,5.649281978607178,-0.9089674949645996,-2.2229385375976562
1657787294682805200,1.70380517578125,5.626069068908691,-0.9028588533401489,-2.1642956733703613
1657787294684805000,1.70580517578125,5.571091175079346,-0.8875871896743774,-2.037846565246582
1657787294686805200,1.70780517578125,5.504506587982178,-0.8637634515762329,-1.909564733505249
1657787294688805000,1.70980517578125,5.472741603851318,-0.8533787727355957,-1.8429805040359497
1657787294690805200,1.71180517578125,5.400048732757568,-0.8222246170043945,-1.7079792022705078
1657787294692805000,1.71380517578125,5.318803787231445,-0.7849618196487427,-1.5693128108978271
1657787294694804700,1.7158046875,5.274210453033447,-0.7648032903671265,-1.4984524250030518
1657787294696804600,1.7178046875,5.179526329040527,-0.7324274182319641,-1.359786033630371
1657787294698804700,1.7198046875,5.073846817016602,-0.6951646208763123,-1.214400053024292
1657787294700803800,1.721803955078125,4.904026031494141,-0.6487388610839844,-0.998153805732727
1657787294702803000,1.723802978515625,4.842329025268555,-0.6316346526145935,-0.9260717034339905
1657787294704803300,1.72580322265625,4.778798580169678,-0.6151412725448608,-0.8546004891395569
1657787294706803200,1.72780322265625,4.708549499511719,-0.6029239892959595,-0.7837401032447815
1657787294708803300,1.72980322265625,4.571104526519775,-0.5809328556060791,-0.6438519954681396
1657787294710803000,1.731802978515625,4.425107955932617,-0.5644394755363464,-0.503963828086853
1657787294712803000,1.733802978515625,4.349971294403076,-0.5546656250953674,-0.43676865100860596
1657787294714803000,1.735802978515625,4.193589687347412,-0.5479460954666138,-0.30115658044815063
1657787294716803000,1.737802978515625,4.034153938293457,-0.5436700582504272,-0.16982053220272064
1657787294718803000,1.739802978515625,3.952908992767334,-0.5424483418464661,-0.10506882518529892
1657787294720803800,1.741803955078125,3.7836992740631104,-0.5418374538421631,0.018936822190880775
1657787294722804700,1.7438046875,3.608991861343384,-0.5485569834709167,0.13805554807186127
1657787294724804900,1.745804931640625,3.519805431365967,-0.5516113042831421,0.19303341209888458
1657787294726805000,1.747804931640625,3.335935115814209,-0.5619960427284241,0.304210901260376
1657787294728804600,1.7498046875,3.141069173812866,-0.5705481171607971,0.40622538328170776
1657787294730805000,1.751804931640625,3.0463850498199463,-0.5754350423812866,0.4544837474822998
1657787294732805000,1.75380517578125,2.8466320037841797,-0.5815436840057373,0.5455026626586914
1657787294734805000,1.755804931640625,2.6481008529663086,-0.5845980644226074,0.6310238242149353
1657787294736805000,1.75780517578125,2.549140691757202,-0.5833762884140015,0.6688974499702454
1657787294738805000,1.759804931640625,2.350609540939331,-0.5736024379730225,0.7360926270484924
1657787294740804000,1.76180419921875,1.7146987915039062,-0.4453207552433014,0.9108000993728638
1657787294742803200,1.76380322265625,1.7146987915039062,-0.4453207552433014,0.9108000993728638
1657787294744802600,1.765802490234375,1.7146987915039062,-0.4453207552433014,0.9108000993728638
1657787294746801700,1.7678017578125,1.6365079879760742,-0.42577308416366577,0.9266825914382935
1657787294748801500,1.769801513671875,1.6365079879760742,-0.42577308416366577,0.9266825914382935
1657787294750801400,1.771801513671875,1.4880677461624146,-0.39156460762023926,0.9425650835037231
1657787294752801500,1.773801513671875,1.361007809638977,-0.34697145223617554,0.9608910083770752
1657787294754802000,1.775802001953125,1.2986994981765747,-0.31581732630729675,0.9663888216018677
1657787294756801800,1.7778017578125,1.187522053718567,-0.25045475363731384,0.9767735004425049
1657787294758802000,1.779802001953125,1.0848966836929321,-0.17409659922122955,0.9779952764511108
1657787294760802800,1.781802734375,1.0396926403045654,-0.13805554807186127,0.979827880859375
1657787294762803700,1.7838037109375,0.9560040831565857,-0.05803219974040985,0.9731083512306213
1657787294764803800,1.785803955078125,0.8857545852661133,0.01771509274840355,0.9633345007896423
1657787294766803700,1.7878037109375,0.8539896011352539,0.05619960278272629,0.9553932547569275
1657787294768803800,1.789803955078125,0.8032878041267395,0.12095131725072861,0.9266825914382935
1657787294770804000,1.791803955078125,0.7709119319915771,0.182648703455925,0.9010262489318848
1657787294772803800,1.793803955078125,0.7586946487426758,0.21380282938480377,0.8772025108337402
1657787294774804000,1.795803955078125,0.7458664774894714,0.26511552929878235,0.8387179970741272
1657787294776803800,1.797803955078125,0.7440338730812073,0.32070425152778625,0.7935139536857605
1657787294778803700,1.7998037109375,0.7452555894851685,0.3536909818649292,0.7715228199958801
1657787294780802800,1.801802734375,0.8442157506942749,0.5998696684837341,0.5198463201522827
1657787294782802000,1.803802001953125,0.8442157506942749,0.5998696684837341,0.5198463201522827
1657787294784801000,1.805801025390625,0.8613200187683105,0.6139195561408997,0.48747047781944275
1657787294786800000,1.807800048828125,0.8778133392333984,0.6352998614311218,0.4550946056842804
1657787294788799700,1.8097998046875,0.8778133392333984,0.6352998614311218,0.4550946056842804
1657787294790798300,1.81179833984375,0.8778133392333984,0.6352998614311218,0.4550946056842804
1657787294792798500,1.813798583984375,0.8930850028991699,0.6524040699005127,0.42638394236564636
1657787294794798300,1.81579833984375,0.9260717034339905,0.6908885836601257,0.36224308609962463
1657787294796798500,1.817798583984375,0.9486737251281738,0.7031059265136719,0.3341432809829712
1657787294798798300,1.81979833984375,0.9841039180755615,0.7458664774894714,0.27611109614372253
1657787294800789500,1.82178955078125,1.0225883722305298,0.8026769161224365,0.21991148591041565
1657787294802798300,1.82379833984375,1.0390818119049072,0.8344419002532959,0.19486601650714874
1657787294804802800,1.825802734375,1.0714576244354248,0.8949176073074341,0.1411098688840866
1657787294806806000,1.827805908203125,1.103833556175232,0.941343367099762,0.07880161702632904
1657787294808808200,1.82980810546875,1.1160508394241333,0.9572258591651917,0.04398229718208313
1657787294810810000,1.83181005859375,1.1410962343215942,0.9749409556388855,-0.02321287989616394
1657787294812811300,1.833811279296875,1.158811330795288,0.988379955291748,-0.09224065393209457
1657787294814813200,1.835813232421875,1.1630873680114746,1.0005972385406494,-0.12522737681865692
1657787294816814000,1.83781396484375,1.1679743528366089,1.0433578491210938,-0.17898350954055786
1657787294818815000,1.83981494140625,1.169806957244873,1.1056660413742065,-0.22418753802776337
1657787294820813300,1.841813232421875,1.1655309200286865,1.3243558406829834,-0.3787364661693573
1657787294822811600,1.843811767578125,1.1655309200286865,1.3243558406829834,-0.3787364661693573
1657787294824810200,1.845810302734375,1.1679743528366089,1.3469579219818115,-0.39584067463874817
1657787294826808800,1.847808837890625,1.1728612184524536,1.368949055671692,-0.41233405470848083
1657787294828807400,1.849807373046875,1.1728612184524536,1.368949055671692,-0.41233405470848083
1657787294830807000,1.85180712890625,1.1728612184524536,1.368949055671692,-0.41233405470848083
1657787294832807400,1.853807373046875,1.176526427268982,1.3909401893615723,-0.4251621961593628
1657787294834807800,1.855807861328125,1.188132882118225,1.4373658895492554,-0.4544837474822998
1657787294836808400,1.857808349609375,1.2009611129760742,1.4819591045379639,-0.48319441080093384
1657787294838808000,1.85980810546875,1.2064588069915771,1.5027284622192383,-0.4966334402561188
1657787294840819200,1.861819091796875,1.2198978662490845,1.5344934463500977,-0.5241223573684692
1657787294842820000,1.863820068359375,1.2296717166900635,1.5570955276489258,-0.5485569834709167
1657787294844820700,1.86582080078125,1.2333369255065918,1.566258430480957,-0.5595525503158569
1657787294846821000,1.867821044921875,1.2406673431396484,1.5900822877883911,-0.5797111392021179
1657787294848821200,1.8698212890625,1.2455542087554932,1.6108516454696655,-0.5943718552589417
1657787294850822400,1.871822509765625,1.246165156364441,1.6194037199020386,-0.6017022728919983
1657787294852822500,1.873822509765625,1.2431107759475708,1.6395623683929443,-0.6090326309204102
1657787294854822700,1.87582275390625,1.2388347387313843,1.6658295392990112,-0.607200026512146
1657787294856822800,1.87782275390625,1.235169529914856,1.6811012029647827,-0.6102544069290161
1657787294858823000,1.879822998046875,1.2296717166900635,1.7146987915039062,-0.6029239892959595
1657787294860820200,1.8818203125,1.2180652618408203,1.76723313331604,-0.5962044596672058
1657787294862820400,1.8838203125,1.2180652618408203,1.76723313331604,-0.5962044596672058
1657787294864820200,1.8858203125,1.2101240158081055,1.8008307218551636,-0.5925393104553223
1657787294866820400,1.8878203125,1.1985175609588623,1.834428310394287,-0.5839871764183044
1657787294868820200,1.8898203125,1.189354658126831,1.8515325784683228,-0.5833762884140015
1657787294870821400,1.8918212890625,1.1746938228607178,1.8771889209747314,-0.5797111392021179
1657787294872821200,1.8938212890625,1.156978726387024,1.89979088306427,-0.5760459303855896
1657787294874821400,1.8958212890625,1.1459832191467285,1.9083430767059326,-0.5760459303855896
1657787294876821500,1.897821533203125,1.1288789510726929,1.9272798299789429,-0.5766568183898926
1657787294878821400,1.8998212890625,1.103833556175232,1.9364428520202637,-0.5729916095733643
1657787294880821500,1.901821533203125,1.094059705734253,1.9382754564285278,-0.5729916095733643
1657787294882821600,1.903821533203125,1.0702359676361084,1.9419406652450562,-0.5742133259773254
1657787294884821500,1.905821533203125,1.0482447147369385,1.93766450881958,-0.5723807215690613
1657787294886821600,1.907821533203125,1.0299187898635864,1.9309450387954712,-0.5711590051651001
1657787294888821800,1.90982177734375,1.0024298429489136,1.9150625467300415,-0.5674937963485718
1657787294890821600,1.911821533203125,0.970054030418396,1.8918496370315552,-0.5619960427284241
1657787294892821800,1.91382177734375,0.9547823667526245,1.8741345405578613,-0.5571091175079346
1657787294894821600,1.915821533203125,0.9193521738052368,1.833817481994629,-0.5467243790626526
1657787294896821800,1.91782177734375,0.9028588533401489,1.777006983757019,-0.5393940210342407
1657787294898821600,1.919821533203125,0.8655960559844971,1.7452419996261597,-0.5229006409645081
1657787294900820700,1.92182080078125,0.7910705208778381,1.6181820631027222,-0.4715879559516907
1657787294902820000,1.923820068359375,0.7910705208778381,1.6181820631027222,-0.4715879559516907
1657787294904820000,1.925820068359375,0.7727445363998413,1.588249683380127,-0.4605923891067505
1657787294906819600,1.927819580078125,0.7367035150527954,1.5344934463500977,-0.4300491213798523
1657787294908819500,1.9298193359375,0.7195992469787598,1.5063936710357666,-0.4147774875164032
1657787294910819300,1.9318193359375,0.6878342628479004,1.4575244188308716,-0.3805690407752991
1657787294912819500,1.9338193359375,0.655458390712738,1.405600905418396,-0.34636059403419495
1657787294914819300,1.9358193359375,0.6438519954681396,1.379333734512329,-0.3280346393585205
1657787294916819200,1.937819091796875,0.618195652961731,1.3237450122833252,-0.29565876722335815
1657787294918819300,1.9398193359375,0.5943718552589417,1.2681562900543213,-0.2638937830924988
1657787294920820200,1.9418203125,0.5839871764183044,1.2400563955307007,-0.24923302233219147
1657787294922820400,1.9438203125,0.5656611919403076,1.1838568449020386,-0.21991148591041565
1657787294924820500,1.945820556640625,0.5503895878791809,1.1301007270812988,-0.19547687470912933
1657787294926820400,1.9478203125,0.5406157374382019,1.1007791757583618,-0.18081611394882202
1657787294928820500,1.949820556640625,0.5265658497810364,1.0500773191452026,-0.1612684279680252
1657787294930820000,1.951820068359375,0.5106833577156067,0.9999864101409912,-0.13927727937698364
1657787294932820000,1.953820068359375,0.5021312236785889,0.9773843884468079,-0.12889257073402405
1657787294934820000,1.955820068359375,0.485027015209198,0.930347740650177,-0.1111774742603302
1657787294936820000,1.957820068359375,0.46853363513946533,0.8845328688621521,-0.09773843735456467
1657787294938820000,1.959820068359375,0.4593706727027893,0.8600982427597046,-0.09285151958465576
1657787294940819200,1.961819091796875,0.39217549562454224,0.7153232097625732,-0.06902777403593063
1657787294942818300,1.963818359375,0.3799581825733185,0.7153232097625732,-0.06902777403593063
1657787294944817200,1.965817138671875,0.3799581825733185,0.7153232097625732,-0.06902777403593063
1657787294946816500,1.96781640625,0.3799581825733185,0.7153232097625732,-0.06902777403593063
1657787294948817400,1.9698173828125,0.3689626157283783,0.7024950385093689,-0.0708603709936142
1657787294950817500,1.971817626953125,0.35735616087913513,0.6908885836601257,-0.06780604273080826
1657787294952817700,1.973817626953125,0.3378084897994995,0.6713408827781677,-0.06841690838336945
1657787294954817500,1.975817626953125,0.3219259977340698,0.655458390712738,-0.06902777403593063
1657787294956817700,1.977817626953125,0.313373863697052,0.6487388610839844,-0.06841690838336945
1657787294958817500,1.979817626953125,0.2993239760398865,0.6285803318023682,-0.06352998316287994
1657787294960818400,1.981818359375,0.2889392673969269,0.6114761233329773,-0.06658431142568588
1657787294962819300,1.9838193359375,0.28527405858039856,0.59803706407547,-0.06414084881544113
1657787294964819500,1.9858193359375,0.2791654169559479,0.578489363193512,-0.06536258012056351
1657787294966819800,1.98781982421875,0.2785545587539673,0.5577199459075928,-0.07024950534105301
1657787294968819700,1.98981982421875,0.2785545587539673,0.5455026626586914,-0.07208210229873657
1657787294970819800,1.99181982421875,0.27977627515792847,0.5247332453727722,-0.08307767659425735
1657787294972819700,1.99381982421875,0.2816088795661926,0.4990769028663635,-0.0959058403968811
1657787294974819800,1.99581982421875,0.2816088795661926,0.48869219422340393,-0.10262536257505417
1657787294976819700,1.99781982421875,0.28527405858039856,0.4612032473087311,-0.11911872029304504
1657787294978819800,1.99981982421875,0.29016098380088806,0.4392121136188507,-0.13561208546161652
1657787294980818700,2.001818603515625,0.29504790902137756,0.3732386529445648,-0.19914206862449646
1657787294982817800,2.00381787109375,0.2981022298336029,0.37140607833862305,-0.20952677726745605
1657787294984817000,2.00581689453125,0.2981022298336029,0.3695734739303589,-0.21502456068992615
1657787294986816000,2.00781591796875,0.2981022298336029,0.3695734739303589,-0.21502456068992615
1657787294988815000,2.009815185546875,0.2981022298336029,0.3695734739303589,-0.21502456068992615
1657787294990814200,2.011814208984375,0.2981022298336029,0.3695734739303589,-0.22113321721553802
1657787294992814000,2.01381396484375,0.2981022298336029,0.3695734739303589,-0.22113321721553802
1657787294994814200,2.015814208984375,0.2981022298336029,0.37201693654060364,-0.23640485107898712
1657787294996814000,2.01781396484375,0.294437050819397,0.3854559659957886,-0.2480112910270691
1657787294998814200,2.019814208984375,0.2926044464111328,0.3885102868080139,-0.25045475363731384
1657787295000815000,2.021815185546875,0.28955012559890747,0.4031710624694824,-0.2571742534637451
1657787295002815200,2.023815185546875,0.28466320037841797,0.4141666293144226,-0.26083946228027344
1657787295004812000,2.02581201171875,0.2828305959701538,0.42088615894317627,-0.26022860407829285
1657787295006812200,2.027812255859375,0.27550023794174194,0.43188172578811646,-0.25595253705978394
1657787295008812000,2.02981201171875,0.2669481039047241,0.44165557622909546,-0.242513507604599
1657787295010812200,2.031812255859375,0.2626720666885376,0.4440990388393402,-0.23396138846874237
1657787295012814800,2.03381494140625,0.24923302233219147,0.4495968222618103,-0.21502456068992615
1657787295014814700,2.035814697265625,0.2382374405860901,0.4489859640598297,-0.19058994948863983
1657787295016814600,2.037814697265625,0.2321287989616394,0.44837507605552673,-0.1771509200334549
1657787295018814500,2.039814453125,0.21624629199504852,0.44287729263305664,-0.14477506279945374
1657787295020812300,2.041812255859375,0.14416420459747314,0.3799581825733185,0.018936822190880775
1657787295022809900,2.043809814453125,0.1362229436635971,0.3646865487098694,0.04337143152952194
1657787295024807400,2.045807373046875,0.1258382350206375,0.34636059403419495,0.06780604273080826
1657787295026806000,2.047805908203125,0.1258382350206375,0.34636059403419495,0.06780604273080826
1657787295028804000,2.04980419921875,0.11728613078594208,0.32986724376678467,0.09224065393209457
1657787295030802400,2.051802490234375,0.11728613078594208,0.32986724376678467,0.09224065393209457
1657787295032802300,2.05380224609375,0.10873401165008545,0.30970868468284607,0.11789698898792267
1657787295034802400,2.055802490234375,0.1014036312699318,0.29138273000717163,0.13927727937698364
1657787295036802300,2.05780224609375,0.08674286305904388,0.2480112910270691,0.19058994948863983
1657787295038802400,2.059802490234375,0.0757472887635231,0.2064724564552307,0.2376265823841095
1657787295040802300,2.06180224609375,0.07024950534105301,0.18387043476104736,0.26145032048225403
1657787295042802400,2.063802490234375,0.06291911751031876,0.13805554807186127,0.30970868468284607
1657787295044802300,2.06580224609375,0.05742133408784866,0.0910189226269722,0.3530801236629486
1657787295046802000,2.067802001953125,0.056810468435287476,0.06658431142568588,0.3738495409488678
1657787295048801800,2.0698017578125,0.05864306539297104,0.013439035043120384,0.4178318381309509
1657787295050801700,2.0718017578125,0.060475658625364304,-0.04153883829712868,0.4544837474822998
1657787295052801500,2.073801513671875,0.06291911751031876,-0.06658431142568588,0.4715879559516907
1657787295054801200,2.07580126953125,0.07147123664617538,-0.12400564551353455,0.5027421116828918
1657787295056801000,2.077801025390625,0.08185594528913498,-0.18081611394882202,0.53328537940979
1657787295058801200,2.07980126953125,0.08552113175392151,-0.20952677726745605,0.5479460954666138
1657787295060798500,2.081798583984375,0.09834930300712585,-0.2968805134296417,0.5876523852348328
1657787295062798300,2.08379833984375,0.10506882518529892,-0.32681289315223694,0.5998696684837341
1657787295064798200,2.085798095703125,0.10934487730264664,-0.3549126982688904,0.6133087277412415
1657787295066798000,2.087798095703125,0.11728613078594208,-0.4141666293144226,0.6310238242149353
1657787295068798000,2.0897978515625,0.12339477986097336,-0.4746423065662384,0.6524040699005127
1657787295070798300,2.09179833984375,0.1258382350206375,-0.5051855444908142,0.6603453159332275
1657787295072798500,2.093798583984375,0.13011430203914642,-0.5674937963485718,0.6786713004112244
1657787295074798300,2.09579833984375,0.13561208546161652,-0.6346889734268188,0.6878342628479004
1657787295076798200,2.097798095703125,0.13866640627384186,-0.6688974499702454,0.694553792476654
1657787295078798300,2.09979833984375,0.14294247329235077,-0.740368664264679,0.7031059265136719
1657787295080798200,2.101798095703125,0.14538592100143433,-0.8148942589759827,0.7110471725463867
1657787295082798300,2.10379833984375,0.1459967941045761,-0.8546004891395569,0.7128797173500061
1657787295084797700,2.105797607421875,0.1514945775270462,-0.9327912330627441,0.7183775305747986
1657787295086797800,2.1077978515625,0.15271630883216858,-1.0140362977981567,0.720820963382721
1657787295088797700,2.109797607421875,0.1514945775270462,-1.0525208711624146,0.7232644557952881
1657787295090797800,2.1117978515625,0.15271630883216858,-1.1349875926971436,0.7263187766075134
1657787295092797700,2.113797607421875,0.152105450630188,-1.2137892246246338,0.7269296646118164
1657787295094797600,2.115797607421875,0.152105450630188,-1.2541064023971558,0.7281513810157776
1657787295096797700,2.117797607421875,0.14905111491680145,-1.3329079151153564,0.7312057018280029
1657787295098797600,2.119797607421875,0.14477506279945374,-1.4104878902435303,0.7354817390441895
1657787295100796700,2.121796630859375,0.1258382350206375,-1.5650367736816406,0.7397578358650208
1657787295102795800,2.123795654296875,0.1258382350206375,-1.5650367736816406,0.7397578358650208
1657787295104796000,2.1257958984375,0.11911872029304504,-1.6029103994369507,0.7409795522689819
1657787295106795800,2.127795654296875,0.10934487730264664,-1.6401731967926025,0.7428121566772461
1657787295108796000,2.1297958984375,0.09529497474431992,-1.7177530527114868,0.7489207983016968
1657787295110795800,2.131795654296875,0.07452555745840073,-1.793500304222107,0.7525860071182251
1657787295112796000,2.1337958984375,0.06352998316287994,-1.8307631015777588,0.7544185519218445
1657787295114795800,2.135795654296875,0.039706241339445114,-1.9065104722976685,0.759916365146637
1657787295116796000,2.1377958984375,0.01710422709584236,-1.9804251194000244,0.7648032903671265
1657787295118795800,2.139795654296875,0.006108652334660292,-2.0164661407470703,0.7654141783714294
1657787295120797200,2.141797119140625,-0.01466076634824276,-2.088548183441162,0.7733554244041443
1657787295122797000,2.143797119140625,-0.03787364438176155,-2.161241292953491,0.7776314616203308
1657787295124797000,2.145796875,-0.04764748737215996,-2.193617105484009,0.7782423496246338
1657787295126796800,2.147796875,-0.06780604273080826,-2.261423110961914,0.7849618196487427
1657787295128797000,2.149796875,-0.09224065393209457,-2.3206770420074463,0.788627028465271
1657787295130796500,2.151796630859375,-0.10323622822761536,-2.348165988922119,0.7904596328735352
1657787295132796400,2.15379638671875,-0.12767083942890167,-2.4019222259521484,0.797789990901947
1657787295134796500,2.155796630859375,-0.15271630883216858,-2.453845739364624,0.808174729347229
1657787295136796700,2.157796630859375,-0.16737708449363708,-2.475836753845215,0.8136724829673767
1657787295138796500,2.159796630859375,-0.19486601650714874,-2.5216517448425293,0.827111542224884
1657787295140795600,2.161795654296875,-0.2993239760398865,-2.6566529273986816,0.8869763612747192
1657787295142794800,2.163794677734375,-0.2993239760398865,-2.6566529273986816,0.8869763612747192
1657787295144794000,2.165794189453125,-0.2993239760398865,-2.6566529273986816,0.8869763612747192
1657787295146793200,2.167793212890625,-0.3127630054950714,-2.6731462478637695,0.8967501521110535
1657787295148793300,2.16979345703125,-0.3127630054950714,-2.6731462478637695,0.8967501521110535
1657787295150793000,2.17179296875,-0.3396410644054413,-2.710409164428711,0.9175195693969727
1657787295152792800,2.173792724609375,-0.36590829491615295,-2.744006633758545,0.9395107626914978
1657787295154793000,2.17579296875,-0.3793473243713379,-2.760499954223633,0.9517280459403992
1657787295156792800,2.177792724609375,-0.403781920671463,-2.7965409755706787,0.9743300676345825
1657787295158793000,2.17979296875,-0.42760565876960754,-2.8344147205352783,1.0018190145492554
1657787295160793600,2.181793701171875,-0.43737950921058655,-2.8515188694000244,1.0170906782150269
1657787295162794500,2.18379443359375,-0.4612032473087311,-2.8912250995635986,1.0458012819290161
1657787295164794400,2.18579443359375,-0.4856378734111786,-2.937040090560913,1.081842303276062
1657787295166794500,2.18779443359375,-0.49785518646240234,-2.9584202766418457,1.103833556175232
1657787295168794600,2.189794677734375,-0.5204572081565857,-3.0103440284729004,1.1478158235549927
1657787295170794000,2.1917939453125,-0.5467243790626526,-3.067765235900879,1.1985175609588623
1657787295172794000,2.193794189453125,-0.5601634383201599,-3.1001410484313965,1.225395679473877
1657787295174794000,2.1957939453125,-0.588874101638794,-3.1691689491271973,1.2852604389190674
1657787295176794000,2.197794189453125,-0.6157521605491638,-3.246137857437134,1.3506230115890503
1657787295178794000,2.1997939453125,-0.6346889734268188,-3.288898468017578,1.3811663389205933
1657787295180792800,2.201792724609375,-0.7874053120613098,-3.6108243465423584,1.6340645551681519
1657787295182792000,2.2037919921875,-0.8155050873756409,-3.6609153747558594,1.6682729721069336
1657787295184791300,2.205791259765625,-0.8155050873756409,-3.6609153747558594,1.6682729721069336
1657787295186790400,2.207790283203125,-0.8155050873756409,-3.6609153747558594,1.6682729721069336
1657787295188790300,2.209790283203125,-0.8454375267028809,-3.710395574569702,1.7037031650543213
1657787295190790400,2.211790283203125,-0.8759807348251343,-3.7592647075653076,1.7397441864013672
1657787295192790500,2.21379052734375,-0.9419541954994202,-3.8643336296081543,1.807550311088562
1657787295194790400,2.215790283203125,-1.0140362977981567,-3.9675698280334473,1.870469331741333
1657787295196791000,2.217791015625,-1.0512990951538086,-4.017660617828369,1.901012659072876
1657787295198791000,2.219791015625,-1.1313223838806152,-4.114788055419922,1.958433985710144
1657787295200791800,2.221791748046875,-1.2125675678253174,-4.208250522613525,2.010357618331909
1657787295202792700,2.223792724609375,-1.2559388875961304,-4.249789714813232,2.0311269760131836
1657787295204793600,2.225793701171875,-1.3396275043487549,-4.327980041503906,2.072054862976074
1657787295206794500,2.22779443359375,-1.4306464195251465,-4.401895046234131,2.104430675506592
1657787295208794600,2.229794677734375,-1.4764612913131714,-4.435492515563965,2.1178698539733887
1657787295210795300,2.231795166015625,-1.568701982498169,-4.489859580993652,2.135584831237793
1657787295212795100,2.233795166015625,-1.6633861064910889,-4.537507057189941,2.146580457687378
1657787295214795300,2.235795166015625,-1.7092009782791138,-4.552778720855713,2.147191286087036
1657787295216795100,2.237795166015625,-1.7983872890472412,-4.580267429351807,2.143526077270508
1657787295218795300,2.239795166015625,-1.8887953758239746,-4.58881950378418,2.127643585205078
1657787295220794600,2.241794677734375,-2.208277940750122,-4.519792079925537,1.984701156616211
1657787295222793700,2.243793701171875,-2.241875410079956,-4.500244140625,1.9590448141098022
1657787295224792800,2.245792724609375,-2.2791383266448975,-4.480085849761963,1.9364428520202637
1657787295226792000,2.2477919921875,-2.2791383266448975,-4.480085849761963,1.9364428520202637
1657787295228791600,2.24979150390625,-2.2791383266448975,-4.480085849761963,1.9364428520202637
1657787295230791000,2.251791015625,-2.2791383266448975,-4.480085849761963,1.9364428520202637
1657787295232791000,2.253791015625,-2.3096814155578613,-4.4544291496276855,1.9071213006973267
1657787295234790700,2.255790771484375,-2.37321138381958,-4.397618770599365,1.8576412200927734
1657787295236790500,2.25779052734375,-2.4300220012664795,-4.331645488739014,1.8057177066802979
1657787295238790100,2.2597900390625,-2.456900119781494,-4.296826362609863,1.7806721925735474
1657787295240802300,2.26180224609375,-2.507601737976074,-4.221689701080322,1.7324138879776
1657787295242802200,2.26380224609375,-2.5558602809906006,-4.141666412353516,1.6884315013885498
1657787295244802300,2.26580224609375,-2.5809056758880615,-4.100127696990967,1.665218710899353
1657787295246802200,2.26780224609375,-2.627331495285034,-4.017660617828369,1.6206254959106445
1657787295248802300,2.26980224609375,-2.671313762664795,-3.936415672302246,1.576032280921936
1657787295250802200,2.27180224609375,-2.6926939487457275,-3.896709442138672,1.5564846992492676
1657787295252801800,2.2738017578125,-2.7391197681427,-3.813020944595337,1.5173892974853516
1657787295254801400,2.275801513671875,-2.780658483505249,-3.732997417449951,1.480737328529358
1657787295256801300,2.27780126953125,-2.805704116821289,-3.6926803588867188,1.46424400806427
1657787295258801200,2.27980126953125,-2.8521299362182617,-3.612046241760254,1.4355332851409912
1657787295260798500,2.281798583984375,-2.8985555171966553,-3.5265250205993652,1.4092661142349243
1657787295262798300,2.28379833984375,-2.9223792552948,-3.48071026802063,1.3994922637939453
1657787295264801000,2.285801025390625,-2.9718594551086426,-3.391523838043213,1.380555510520935
1657787295266801000,2.28780078125,-3.020728588104248,-3.3005049228668213,1.3701707124710083
1657787295268800800,2.28980078125,-3.045774221420288,-3.2540791034698486,1.3640620708465576
1657787295270800600,2.291800537109375,-3.0976977348327637,-3.162449359893799,1.3573426008224487
1657787295272800800,2.29380078125,-3.1471776962280273,-3.067765235900879,1.3524556159973145
1657787295274800600,2.295800537109375,-3.1722233295440674,-3.02317214012146,1.348179578781128
1657787295276800500,2.297800537109375,-3.226590156555176,-2.9297096729278564,1.3463469743728638
1657787295278800400,2.29980029296875,-3.2846224308013916,-2.836247444152832,1.3365731239318848
1657787295280800500,2.301800537109375,-3.3090569972991943,-2.7898216247558594,1.3329079151153564
1657787295282800400,2.30380029296875,-3.3689217567443848,-2.701857089996338,1.3261884450912476
1657787295284800000,2.305800048828125,-3.428786516189575,-2.618168354034424,1.3151928186416626
1657787295286800100,2.307800048828125,-3.4605515003204346,-2.577240467071533,1.310916781425476
1657787295288800000,2.309800048828125,-3.5216381549835205,-2.49294114112854,1.301142930984497
1657787295290799900,2.3117998046875,-3.584557294845581,-2.4110851287841797,1.289536476135254
1657787295292800000,2.313800048828125,-3.6132678985595703,-2.3719897270202637,1.282817006111145
1657787295294800000,2.3157998046875,-3.671300172805786,-2.291355609893799,1.2687671184539795
1657787295296800000,2.317800048828125,-3.7311649322509766,-2.216219186782837,1.2504411935806274
1657787295298799900,2.3197998046875,-3.7617082595825195,-2.1765129566192627,1.2406673431396484
1657787295300799000,2.321799072265625,-3.8710529804229736,-2.0225749015808105,1.1948524713516235
1657787295302798000,2.323798095703125,-3.8710529804229736,-2.0225749015808105,1.1948524713516235
1657787295304798000,2.3257978515625,-3.89732027053833,-1.984701156616211,1.1844676733016968
1657787295306798000,2.327798095703125,-3.9461894035339355,-1.9040669202804565,1.1594222784042358
1657787295308798000,2.3297978515625,-3.992615222930908,-1.82404363155365,1.1337659358978271
1657787295310798600,2.331798583984375,-4.01399564743042,-1.7843374013900757,1.1197160482406616
1657787295312798700,2.333798828125,-4.057366847991943,-1.7018705606460571,1.092837929725647
1657787295314798800,2.335798828125,-4.096462249755859,-1.6218472719192505,1.0684033632278442
1657787295316798700,2.337798828125,-4.118453502655029,-1.5827518701553345,1.0586295127868652
1657787295318798600,2.339798583984375,-4.156938076019287,-1.5057828426361084,1.0366383790969849
1657787295320799500,2.341799560546875,-4.192368030548096,-1.4385876655578613,1.0250319242477417
1657787295322800400,2.34380029296875,-4.210694313049316,-1.405600905418396,1.0207557678222656
1657787295324799500,2.345799560546875,-4.248567581176758,-1.3396275043487549,1.0122036933898926
1657787295326799600,2.347799560546875,-4.281554698944092,-1.2791517972946167,1.0109820365905762
1657787295328799500,2.349799560546875,-4.298658847808838,-1.2492194175720215,1.0128145217895508
1657787295330799600,2.351799560546875,-4.330423831939697,-1.1954632997512817,1.0195341110229492
1657787295332799500,2.353799560546875,-4.362799644470215,-1.1441506147384644,1.034194827079773
1657787295334799600,2.355799560546875,-4.3786821365356445,-1.1172724962234497,1.0421360731124878
1657787295336799500,2.357799560546875,-4.409836292266846,-1.072068452835083,1.0580185651779175
1657787295338799600,2.359799560546875,-4.438546657562256,-1.0231993198394775,1.081842303276062
1657787295340798700,2.361798828125,-4.53445291519165,-0.8753699064254761,1.160033106803894
1657787295342797800,2.3637978515625,-4.550946235656738,-0.8527678847312927,1.1740829944610596
1657787295344797200,2.365797119140625,-4.550946235656738,-0.8527678847312927,1.1740829944610596
1657787295346796300,2.36779638671875,-4.550946235656738,-0.8527678847312927,1.1740829944610596
1657787295348796200,2.369796142578125,-4.56621789932251,-0.827111542224884,1.189354658126831
1657787295350795800,2.371795654296875,-4.593095779418945,-0.7800748944282532,1.2205088138580322
1657787295352796000,2.3737958984375,-4.605924129486084,-0.7574729323387146,1.238223910331726
1657787295354796800,2.375796875,-4.6328020095825195,-0.7116580009460449,1.2669345140457153
1657787295356797000,2.377796875,-4.657236576080322,-0.6682865619659424,1.2999212741851807
1657787295358796800,2.379796875,-4.669454097747803,-0.646906316280365,1.3170254230499268
1657787295360797700,2.381797607421875,-4.692056179046631,-0.608421802520752,1.3451253175735474
1657787295362798600,2.383798583984375,-4.715268611907959,-0.5754350423812866,1.3726142644882202
1657787295364798700,2.385798828125,-4.725042819976807,-0.5577199459075928,1.3866641521453857
1657787295366798300,2.38779833984375,-4.745811939239502,-0.5259549617767334,1.4080443382263184
1657787295368798500,2.389798583984375,-4.753753185272217,-0.49785518646240234,1.416596531867981
1657787295370797800,2.3917978515625,-4.773911952972412,-0.48380526900291443,1.4355332851409912
1657787295372798200,2.393798095703125,-4.792848587036133,-0.4538728892803192,1.4465289115905762
1657787295374798300,2.39579833984375,-4.801400661468506,-0.4404338300228119,1.4520267248153687
1657787295376798500,2.397798583984375,-4.816061496734619,-0.4129449129104614,1.4587461948394775
1657787295378798300,2.39979833984375,-4.830722332000732,-0.3836233615875244,1.46424400806427
1657787295380797400,2.40179736328125,-4.885700225830078,-0.2822197377681732,1.4440854787826538
1657787295382795800,2.403795654296875,-4.892419815063477,-0.2675589919090271,1.4404202699661255
1657787295384795000,2.405794921875,-4.900361061096191,-0.25473082065582275,1.433700680732727
1657787295386794000,2.4077939453125,-4.900361061096191,-0.25473082065582275,1.433700680732727
1657787295388793000,2.40979296875,-4.903415203094482,-0.24190263450145721,1.423926830291748
1657787295390792200,2.411792236328125,-4.903415203094482,-0.24190263450145721,1.423926830291748
1657787295392791300,2.413791259765625,-4.903415203094482,-0.24190263450145721,1.423926830291748
1657787295394791400,2.41579150390625,-4.9174652099609375,-0.21380282938480377,1.4074335098266602
1657787295396791300,2.417791259765625,-4.932126045227051,-0.18631389737129211,1.389107584953308
1657787295398791400,2.41979150390625,-4.946176052093506,-0.1612684279680252,1.3732250928878784
1657787295400791300,2.421791259765625,-4.952284336090088,-0.1459967941045761,1.3622294664382935
1657787295402791400,2.42379150390625,-4.965112686157227,-0.12278391420841217,1.340238332748413
1657787295404791300,2.425791259765625,-4.972443103790283,-0.1062905490398407,1.3335188627243042
1657787295406791200,2.427791259765625,-4.986493110656738,-0.08491026610136032,1.318858027458191
1657787295408790800,2.429790771484375,-4.998099327087402,-0.05803219974040985,1.302364706993103
1657787295410790700,2.431790771484375,-5.002375602722168,-0.04642575979232788,1.2950342893600464
1657787295412790500,2.43379052734375,-5.010927677154541,-0.018936822190880775,1.2809844017028809
1657787295414788600,2.43578857421875,-5.020090579986572,0.006719517521560192,1.2718214988708496
1657787295416788500,2.43778857421875,-5.0207014083862305,0.02015855349600315,1.2657127380371094
1657787295418788400,2.439788330078125,-5.022533893585205,0.045204028487205505,1.2608258724212646
1657787295420785700,2.44178564453125,-5.001153945922852,0.14905111491680145,1.2565498352050781
1657787295422783200,2.443783203125,-4.996877670288086,0.1569923609495163,1.2583824396133423
1657787295424781000,2.445781005859375,-4.9901580810546875,0.16859880089759827,1.2596040964126587
1657787295426779000,2.44777880859375,-4.9901580810546875,0.16859880089759827,1.2596040964126587
1657787295428778800,2.44977880859375,-4.9901580810546875,0.16859880089759827,1.2596040964126587
1657787295430776800,2.45177685546875,-4.982216835021973,0.1765400618314743,1.2651019096374512
1657787295432777000,2.45377685546875,-4.9736647605896,0.18509216606616974,1.2669345140457153
1657787295434776800,2.45577685546875,-4.966334342956543,0.18631389737129211,1.2712105512619019
1657787295436776400,2.4577763671875,-4.949230194091797,0.19364428520202637,1.2834278345108032
1657787295438776600,2.459776611328125,-4.929682731628418,0.19792033731937408,1.2962560653686523
1657787295440776400,2.4617763671875,-4.915021896362305,0.19792033731937408,1.303586483001709
1657787295442776600,2.463776611328125,-4.89119815826416,0.20097467303276062,1.320690631866455
1657787295444776400,2.4657763671875,-4.861876487731934,0.2064724564552307,1.340238332748413
1657787295446776600,2.467776611328125,-4.845993995666504,0.21074850857257843,1.350012183189392
1657787295448776400,2.4697763671875,-4.810564041137695,0.21807889640331268,1.3732250928878784
1657787295450774300,2.471774169921875,-4.771468639373779,0.22357667982578278,1.397048830986023
1657787295452774000,2.47377392578125,-4.751309871673584,0.2272418737411499,1.4049900770187378
1657787295454773800,2.475773681640625,-4.706716537475586,0.23579397797584534,1.4306464195251465
1657787295456773600,2.477773681640625,-4.66090202331543,0.24556782841682434,1.4538593292236328
1657787295458773500,2.4797734375,-4.63891077041626,0.2528982162475586,1.4648548364639282
1657787295460770800,2.481770751953125,-4.569882869720459,0.27122417092323303,1.49906325340271
1657787295462771000,2.48377099609375,-4.548502445220947,0.28099802136421204,1.5112806558609009
1657787295464772900,2.48577294921875,-4.524678707122803,0.2877175211906433,1.5210545063018799
1657787295466772700,2.487772705078125,-4.480085849761963,0.304210901260376,1.541213035583496
1657787295468772900,2.48977294921875,-4.437935829162598,0.3176499307155609,1.5613715648651123
1657787295470772000,2.49177197265625,-4.414112091064453,0.3237585723400116,1.5699236392974854
1657787295472772000,2.493772216796875,-4.372573375701904,0.32986724376678467,1.5864170789718628
1657787295474772000,2.49577197265625,-4.331645488739014,0.33658674359321594,1.5992451906204224
1657787295476772000,2.497772216796875,-4.310265064239502,0.33658674359321594,1.6059647798538208
1657787295478772000,2.49977197265625,-4.268726348876953,0.3396410644054413,1.615127682685852
1657787295480772000,2.501772216796875,-4.224743843078613,0.3396410644054413,1.6194037199020386
1657787295482772000,2.50377197265625,-4.201530933380127,0.33658674359321594,1.6212363243103027
1657787295484772000,2.505772216796875,-4.15327262878418,0.33292156457901,1.6200146675109863
1657787295486772000,2.50777197265625,-4.105014324188232,0.3225368559360504,1.6187928915023804
1657787295488771800,2.509771728515625,-4.08057975769043,0.3188716471195221,1.616349458694458
1657787295490772000,2.51177197265625,-4.030488967895508,0.3084869384765625,1.607797384262085
1657787295492771800,2.513771728515625,-3.980397939682007,0.3029891550540924,1.6004669666290283
1657787295494771700,2.515771728515625,-3.953519821166992,0.30054569244384766,1.5961909294128418
1657787295496771800,2.517771728515625,-3.902207136154175,0.29504790902137756,1.5809192657470703
1657787295498771700,2.519771728515625,-3.8533380031585693,0.2932153046131134,1.5668693780899048
1657787295500770800,2.521770751953125,-3.7537670135498047,0.29016098380088806,1.5308283567428589
1657787295502770000,2.52377001953125,-3.7537670135498047,0.29016098380088806,1.5308283567428589
1657787295504770000,2.52577001953125,-3.7311649322509766,0.28527405858039856,1.519832730293274
1657787295506770000,2.52777001953125,-3.7061195373535156,0.2822197377681732,1.510058879852295
1657787295508769800,2.529769775390625,-3.6560285091400146,0.27611109614372253,1.4856243133544922
1657787295510770200,2.531770263671875,-3.6077702045440674,0.2687807083129883,1.4575244188308716
1657787295512770300,2.533770263671875,-3.5833356380462646,0.2638937830924988,1.4428637027740479
1657787295514770200,2.535770263671875,-3.533855438232422,0.2565633952617645,1.4147639274597168
1657787295516770300,2.537770263671875,-3.4849863052368164,0.251676470041275,1.386053204536438
1657787295518770400,2.5397705078125,-3.4581081867218018,0.24923302233219147,1.3713924884796143
1657787295520771300,2.541771240234375,-3.4067955017089844,0.24434609711170197,1.3408491611480713
1657787295522771000,2.54377099609375,-3.3536500930786133,0.24373523890972137,1.313360333442688
1657787295524770300,2.545770263671875,-3.327993869781494,0.24434609711170197,1.2968668937683105
1657787295526770200,2.547770263671875,-3.2766811847686768,0.2480112910270691,1.2718214988708496
1657787295528769300,2.549769287109375,-3.2259793281555176,0.252287358045578,1.2473868131637573
1657787295530769700,2.551769775390625,-3.1984903812408447,0.2565633952617645,1.2333369255065918
1657787295532769800,2.553769775390625,-3.148399591445923,0.2681698501110077,1.2107349634170532
1657787295534769700,2.555769775390625,-3.101362943649292,0.2785545587539673,1.188132882118225
1657787295536769500,2.55776953125,-3.0750956535339355,0.2883284091949463,1.1801916360855103
1657787295538769700,2.559769775390625,-3.0256154537200928,0.30115658044815063,1.1563678979873657
1657787295540768800,2.561768798828125,-2.8521299362182617,0.32986724376678467,1.1117748022079468
1657787295542767900,2.563767822265625,-2.8521299362182617,0.32986724376678467,1.1117748022079468
1657787295544767000,2.56576708984375,-2.8521299362182617,0.32986724376678467,1.1117748022079468
1657787295546766000,2.56776611328125,-2.825251817703247,0.33169981837272644,1.1062769889831543
1657787295548766000,2.569765869140625,-2.825251817703247,0.33169981837272644,1.1062769889831543
1657787295550766000,2.57176611328125,-2.769052267074585,0.3323107063770294,1.0995573997497559
1657787295552766200,2.57376611328125,-2.707965612411499,0.3274237811565399,1.0989465713500977
1657787295554766000,2.57576611328125,-2.677422285079956,0.323147714138031,1.0971139669418335
1657787295556766200,2.57776611328125,-2.6059510707855225,0.3170390725135803,1.0989465713500977
1657787295558766300,2.579766357421875,-2.536923408508301,0.2981022298336029,1.1032226085662842
1657787295560767200,2.581767333984375,-2.499049663543701,0.28588494658470154,1.1068878173828125
1657787295562768000,2.583767822265625,-2.4239132404327393,0.2577851414680481,1.1148290634155273
1657787295564768000,2.58576806640625,-2.3457224369049072,0.22052235901355743,1.1227703094482422
1657787295566767900,2.587767822265625,-2.3047945499420166,0.1966986060142517,1.1288789510726929
1657787295568768000,2.58976806640625,-2.2186625003814697,0.13744467496871948,1.1429288387298584
1657787295570768100,2.59176806640625,-2.1264219284057617,0.07024950534105301,1.160033106803894
1657787295572768000,2.59376806640625,-2.0751092433929443,0.03298672288656235,1.1679743528366089
1657787295574768000,2.59576806640625,-1.9737056493759155,-0.0507018156349659,1.1905763149261475
1657787295576768000,2.59776806640625,-1.8674150705337524,-0.14355333149433136,1.2180652618408203
1657787295578768100,2.59976806640625,-1.8118263483047485,-0.1918116807937622,1.2315043210983276
1657787295580767000,2.60176708984375,-1.2907582521438599,-0.7287622094154358,1.3994922637939453
1657787295582766600,2.6037666015625,-1.2302825450897217,-0.7959573864936829,1.4220943450927734
1657787295584765700,2.605765625,-1.1746938228607178,-0.8637634515762329,1.4483615159988403
1657787295586764500,2.6077646484375,-1.1746938228607178,-0.8637634515762329,1.4483615159988403
1657787295588764700,2.6097646484375,-1.1746938228607178,-0.8637634515762329,1.4483615159988403
1657787295590763800,2.611763671875,-1.1746938228607178,-0.8637634515762329,1.4483615159988403
1657787295592763600,2.613763671875,-1.1184942722320557,-0.930347740650177,1.4721852540969849
1657787295594763800,2.615763671875,-1.009149432182312,-1.064738154411316,1.5253305435180664
1657787295596764000,2.617763916015625,-0.9553932547569275,-1.129489779472351,1.5528194904327393
1657787295598763800,2.619763671875,-0.8539896011352539,-1.2516628503799438,1.6090190410614014
1657787295600764000,2.621763916015625,-0.7586946487426758,-1.367727279663086,1.6682729721069336
1657787295602763800,2.623763671875,-0.7116580009460449,-1.4208725690841675,1.6969836950302124
1657787295604764000,2.625763916015625,-0.6279694437980652,-1.5210545063018799,1.7580702304840088
1657787295606763800,2.627763671875,-0.5497786998748779,-1.6102408170700073,1.816102385520935
1657787295608763600,2.629763671875,-0.5149593949317932,-1.6487252712249756,1.8417587280273438
1657787295610763300,2.63176318359375,-0.4502076804637909,-1.7177530527114868,1.8979582786560059
1657787295612763100,2.63376318359375,-0.3982841372489929,-1.7696765661239624,1.949881911277771
1657787295614763000,2.635762939453125,-0.37262779474258423,-1.7941112518310547,1.9773707389831543
1657787295616763000,2.637762939453125,-0.3274237811565399,-1.8301522731781006,2.0250182151794434
1657787295618762800,2.6397626953125,-0.29016098380088806,-1.8515325784683228,2.0677788257598877
1657787295620760000,2.641760009765625,-0.16432274878025055,-1.8478673696517944,2.1838431358337402
1657787295622757600,2.643757568359375,-0.16432274878025055,-1.8478673696517944,2.1838431358337402
1657787295624755500,2.64575537109375,-0.1514945775270462,-1.8368717432022095,2.1905627250671387
1657787295626753500,2.64775341796875,-0.1368338167667389,-1.8270978927612305,2.1954495906829834
1657787295628752000,2.649751953125,-0.1368338167667389,-1.8270978927612305,2.1954495906829834
1657787295630750200,2.651750244140625,-0.1368338167667389,-1.8270978927612305,2.1954495906829834
1657787295632750000,2.65375,-0.12400564551353455,-1.8167132139205933,2.1991147994995117
1657787295634750200,2.655750244140625,-0.09834930300712585,-1.788002610206604,2.2003366947174072
1657787295636750000,2.65775,-0.07635815441608429,-1.7592918872833252,2.197282314300537
1657787295638750500,2.65975048828125,-0.06230825558304787,-1.7415767908096313,2.1905627250671387
1657787295640734500,2.661734375,-0.04581489413976669,-1.7146987915039062,2.174680233001709
1657787295642745300,2.663745361328125,-0.025045474991202354,-1.6865988969802856,2.1545217037200928
1657787295644747300,2.665747314453125,-0.015882495790719986,-1.670716404914856,2.141693592071533
1657787295646751000,2.6677509765625,0.006719517521560192,-1.6487252712249756,2.1111502647399902
1657787295648753700,2.669753662109375,0.033597588539123535,-1.6255123615264893,2.0775527954101562
1657787295650755300,2.67175537109375,0.04764748737215996,-1.615127682685852,2.059837579727173
1657787295652757200,2.67375732421875,0.08796459436416626,-1.5961909294128418,2.018298864364624
