time,seconds_elapsed,z,y,x
1657787293044704000,0.0657041015625,14.094964981079102,0.3998316824436188,-1.015141487121582
1657787293046692000,0.067692138671875,13.992013931274414,0.45250412821769714,-0.9792284965515137
1657787293048704000,0.0697041015625,13.924976348876953,0.4668693244457245,-0.9648633003234863
1657787293050704100,0.0717041015625,13.778929710388184,0.47884035110473633,-0.9361328482627869
1657787293052708000,0.0737080078125,13.618518829345703,0.4812345504760742,-0.9193734526634216
1657787293054711000,0.0757109375,13.216292381286621,0.47644615173339844,-0.8523358106613159
1657787293056708400,0.077708251953125,13.216292381286621,0.47644615173339844,-0.8379706144332886
1657787293058710000,0.0797099609375,13.11334228515625,0.45489832758903503,-0.8379706144332886
1657787293060711700,0.081711669921875,13.000814437866211,0.4429273009300232,-0.828393816947937
1657787293062713000,0.083713134765625,12.756606101989746,0.42616790533065796,-0.8164227604866028
1657787293064714200,0.08571435546875,12.53633975982666,0.3734954595565796,-0.8403648138046265
1657787293066715400,0.08771533203125,12.421417236328125,0.35673606395721436,-0.8475474119186401
1657787293068716300,0.08971630859375,12.181997299194336,0.3016694188117981,-0.8882488012313843
1657787293070717200,0.09171728515625,12.071864128112793,0.2777273952960968,-0.8930372595787048
1657787293072718000,0.093718017578125,11.856386184692383,0.2513911724090576,-0.9097966551780701
1657787293074719000,0.095718994140625,11.628936767578125,0.21308395266532898,-0.933738648891449
1657787293076720400,0.097720458984375,11.396698951721191,0.17238251864910126,-0.9792284965515137
1657787293078721000,0.099720947265625,11.288960456848145,0.16519992053508759,-1.0295066833496094
1657787293080721700,0.1017216796875,11.061511039733887,0.17238251864910126,-1.1180921792984009
1657787293082722300,0.103722412109375,10.951377868652344,0.14365209639072418,-1.161187767982483
1657787293084723000,0.105722900390625,10.611401557922363,0.13407529890537262,-1.280897855758667
1657787293086723300,0.107723388671875,10.518027305603027,0.12449848651885986,-1.3120225667953491
1657787293088724000,0.109723876953125,10.419864654541016,0.12689268589019775,-1.3431471586227417
1657787293090724600,0.111724609375,10.221146583557129,0.12928688526153564,-1.4053963422775269
1657787293092725000,0.11372509765625,10.036792755126953,0.13168109953403473,-1.501164436340332
1657787293094725600,0.1157255859375,9.660902976989746,0.1149216815829277,-1.702277421951294
1657787293096725000,0.11772509765625,9.660902976989746,0.1149216815829277,-1.702277421951294
1657787293098724600,0.119724609375,9.660902976989746,0.1149216815829277,-1.702277421951294
1657787293100725000,0.12172509765625,9.608230590820312,0.0933738648891449,-1.7477672100067139
1657787293102725400,0.123725341796875,9.507674217224121,0.06224924325942993,-1.821987509727478
1657787293104725800,0.125725830078125,9.428665161132812,0.033518824726343155,-1.9249382019042969
1657787293106726100,0.12772607421875,9.402329444885254,0.021547814831137657,-1.9632453918457031
1657787293108726000,0.12972607421875,9.368810653686523,-0.0071826050989329815,-2.0254945755004883
1657787293110726400,0.131726318359375,9.35205078125,-0.031124621629714966,-2.097320795059204
1657787293112726500,0.1337265625,9.354445457458496,-0.026336219161748886,-2.1332337856292725
1657787293114726400,0.135726318359375,9.354445457458496,-0.06224924325942993,-2.185906171798706
1657787293116726800,0.137726806640625,9.375992774963379,-0.0694318488240242,-2.2026655673980713
1657787293118727000,0.139726806640625,9.404723167419434,-0.07422025501728058,-2.205059766769409
1657787293120726800,0.141726806640625,9.452607154846191,-0.090979665517807,-2.1715409755706787
1657787293122727000,0.143726806640625,9.495702743530273,-0.0933738648891449,-2.1571757793426514
1657787293124726800,0.145726806640625,9.581894874572754,-0.090979665517807,-2.0805611610412598
1657787293126727000,0.147726806640625,9.634567260742188,-0.09816227108240128,-2.0422539710998535
1657787293128726800,0.149726806640625,9.71357536315918,-0.10295066982507706,-1.968033790588379
1657787293130727000,0.151726806640625,9.751882553100586,-0.13168109953403473,-1.9105730056762695
1657787293132726800,0.153726806640625,9.864410400390625,-0.14604631066322327,-1.7956513166427612
1657787293134727000,0.155726806640625,10.333673477172852,-0.15562310814857483,-1.216254472732544
1657787293136725500,0.1577255859375,10.374375343322754,-0.15083470940589905,-1.1468225717544556
1657787293138724900,0.159724853515625,10.374375343322754,-0.15083470940589905,-1.1468225717544556
1657787293140724000,0.161723876953125,10.374375343322754,-0.15083470940589905,-1.1468225717544556
1657787293142723000,0.16372314453125,10.374375343322754,-0.15083470940589905,-1.1468225717544556
1657787293144723200,0.16572314453125,10.462960243225098,-0.12210428714752197,-1.0007762908935547
1657787293146723300,0.167723388671875,10.498873710632324,-0.11252748221158981,-0.9026140570640564
1657787293148722700,0.16972265625,10.529998779296875,-0.11013327538967133,-0.8092401623725891
1657787293150722800,0.171722900390625,10.573094367980957,-0.090979665517807,-0.667982280254364
1657787293152722700,0.17372265625,10.606613159179688,-0.05746084079146385,-0.5147533416748047
1657787293154722800,0.175722900390625,10.609006881713867,-0.0454898327589035,-0.4405331015586853
1657787293156723500,0.177723388671875,10.601824760437012,0,-0.28730419278144836
1657787293158724400,0.179724365234375,10.582671165466309,0.033518824726343155,-0.15801730751991272
1657787293160724500,0.181724365234375,10.553940773010254,0.05506663769483566,-0.09816227108240128
1657787293162724400,0.183724365234375,10.47014331817627,0.11971008777618408,0.019153613597154617
1657787293164724200,0.18572412109375,10.386345863342285,0.14844051003456116,0.12928688526153564
1657787293166723800,0.187723876953125,10.331279754638672,0.17717093229293823,0.1867477297782898
1657787293168724000,0.189723876953125,10.223540306091309,0.24181437492370605,0.28730419278144836
1657787293170724000,0.19172412109375,10.07270622253418,0.31364041566848755,0.36152446269989014
1657787293172724000,0.193723876953125,9.996091842651367,0.33758243918418884,0.3926490843296051
1657787293174724000,0.19572412109375,9.840468406677246,0.38307225704193115,0.4668693244457245
1657787293176723700,0.1977236328125,9.244312286376953,0.5793967843055725,0.6751648783683777
1657787293178722800,0.199722900390625,9.177274703979492,0.6009446382522583,0.7038952708244324
1657787293180722000,0.201721923828125,9.098265647888184,0.6248866319656372,0.727837324142456
1657787293182721000,0.203720947265625,9.098265647888184,0.6248866319656372,0.727837324142456
1657787293184720100,0.20572021484375,9.019257545471191,0.6416460275650024,0.7350199222564697
1657787293186719200,0.20771923828125,9.019257545471191,0.6416460275650024,0.7350199222564697
1657787293188719400,0.20971923828125,8.949825286865234,0.6655880808830261,0.7469909191131592
1657787293190719200,0.21171923828125,8.880393028259277,0.6991068720817566,0.7613561153411865
1657787293192719400,0.21371923828125,8.743924140930176,0.730231523513794,0.7733271718025208
1657787293194719200,0.21571923828125,8.633790969848633,0.7565677165985107,0.7805097699165344
1657787293196719400,0.21771923828125,8.566753387451172,0.7829039692878723,0.7876923680305481
1657787293198719200,0.21971923828125,8.449437141418457,0.8164227604866028,0.8068459630012512
1657787293200719400,0.22171923828125,8.329727172851562,0.8643068075180054,0.7972691655158997
1657787293202719200,0.22371923828125,8.28663158416748,0.8834604024887085,0.7996633648872375
1657787293204719400,0.22571923828125,8.176498413085938,0.912190854549408,0.811634361743927
1657787293206719200,0.22771923828125,8.07354736328125,0.9528923034667969,0.8379706144332886
1657787293208719400,0.22971923828125,8.013691902160645,0.9720458984375,0.8547300100326538
1657787293210719200,0.23171923828125,7.9083476066589355,1.0031704902648926,0.8667010068893433
1657787293212719400,0.23371923828125,7.8006086349487305,1.0414776802062988,0.871489405632019
1657787293214719500,0.235719482421875,7.7527241706848145,1.070208191871643,0.8858546018600464
1657787293216717600,0.237717529296875,7.415142059326172,1.2114660739898682,1.0223240852355957
1657787293218715600,0.239715576171875,7.415142059326172,1.2114660739898682,1.0223240852355957
1657787293220713700,0.241713623046875,7.37204647064209,1.235408067703247,1.05105459690094
1657787293222711800,0.2437119140625,7.3361334800720215,1.2545616626739502,1.0654197931289673
1657787293224710100,0.245710205078125,7.3361334800720215,1.2545616626739502,1.0654197931289673
1657787293226708700,0.247708740234375,7.302614688873291,1.2761094570159912,1.0678139925003052
1657787293228708600,0.24970849609375,7.2667012214660645,1.2856862545013428,1.0678139925003052
1657787293230708700,0.251708740234375,7.185298442840576,1.3120225667953491,1.094150185585022
1657787293232708600,0.25370849609375,7.158962249755859,1.3287819623947144,1.094150185585022
1657787293234708700,0.255708740234375,7.103895664215088,1.3551181554794312,1.0845733880996704
1657787293236708600,0.25770849609375,7.048829078674316,1.3646949529647827,1.0630255937576294
1657787293238708700,0.259708740234375,7.0248870849609375,1.3718775510787964,1.0534487962722778
1657787293240708600,0.26170849609375,6.97700309753418,1.4101848602294922,1.0558429956436157
1657787293242708700,0.263708740234375,6.93151330947876,1.434126853942871,1.0678139925003052
1657787293244708600,0.26570849609375,6.905177116394043,1.4532804489135742,1.0845733880996704
1657787293246708700,0.267708740234375,6.890811920166016,1.5083470344543457,1.1276689767837524
1657787293248708900,0.269708984375,6.8932061195373535,1.5538369417190552,1.1468225717544556
1657787293250708700,0.271708740234375,6.890811920166016,1.5825673341751099,1.137245774269104
1657787293252708900,0.273708984375,6.876446723937988,1.6304513216018677,1.1300631761550903
1657787293254709000,0.275708984375,6.881235122680664,1.680729627609253,1.1324573755264282
1657787293256708000,0.2777080078125,6.900388717651367,1.7070658206939697,1.1300631761550903
1657787293258708000,0.2797080078125,6.907571315765381,1.7381904125213623,1.1228805780410767
1657787293260708000,0.2817080078125,6.929119110107422,1.802833914756775,1.1324573755264282
1657787293262708000,0.2837080078125,6.929119110107422,1.821987509727478,1.139639973640442
1657787293264708000,0.2857080078125,6.926724910736084,1.8531121015548706,1.1659762859344482
1657787293266708000,0.2877080078125,6.9363017082214355,1.8770540952682495,1.1827356815338135
1657787293268708000,0.2897080078125,6.948272705078125,1.8938134908676147,1.1851298809051514
1657787293270708000,0.2917080078125,6.9817914962768555,1.922544002532959,1.1875240802764893
1657787293272708000,0.2937080078125,7.012916088104248,1.9345149993896484,1.1899182796478271
1657787293274708000,0.2957080078125,7.015310287475586,1.946485996246338,1.1971008777618408
1657787293276709400,0.29770947265625,7.0248870849609375,1.9584569931030273,1.1994950771331787
1657787293278710000,0.2997099609375,7.051223278045654,1.968033790588379,1.2234370708465576
1657787293280711000,0.3017109375,7.0679826736450195,1.9800047874450684,1.2330138683319092
1657787293282711800,0.3037119140625,7.111078262329102,1.9776105880737305,1.2641384601593018
1657787293284712700,0.305712646484375,7.137414455413818,1.9776105880737305,1.2880805730819702
1657787293286713300,0.30771337890625,7.149385452270508,1.9823989868164062,1.2952631711959839
1657787293288713500,0.30971337890625,7.194875240325928,1.9991583824157715,1.3048399686813354
1657787293290713300,0.31171337890625,7.228394031524658,2.0207061767578125,1.3239935636520386
1657787293292713500,0.31371337890625,7.249941825866699,2.006340980529785,1.3215993642807007
1657787293294713600,0.315713623046875,7.273883819580078,2.0207061767578125,1.3048399686813354
1657787293296712700,0.317712646484375,7.312191486358643,2.0614075660705566,1.278503656387329
1657787293298711800,0.3197119140625,7.32655668258667,2.054224967956543,1.256955862045288
1657787293300711700,0.321711669921875,7.340921878814697,2.0614075660705566,1.2330138683319092
1657787293302711600,0.323711669921875,7.3792290687561035,2.0805611610412598,1.1971008777618408
1657787293304711700,0.325711669921875,7.4007768630981445,2.0925323963165283,1.1755530834197998
1657787293306711600,0.327711669921875,7.436689853668213,2.1068975925445557,1.139639973640442
1657787293308711700,0.329711669921875,7.49654483795166,2.123656988143921,1.091755986213684
1657787293310711600,0.331711669921875,7.5324578285217285,2.121262788772583,1.0534487962722778
1657787293312711400,0.33371142578125,7.577947616577148,2.1547815799713135,1.0103530883789062
1657787293314711600,0.335711669921875,7.630620002746582,2.2026655673980713,0.9552865028381348
1657787293316712400,0.33771240234375,7.6641387939453125,2.207453966140747,0.9409212470054626
1657787293318712300,0.33971240234375,7.719205379486084,2.2026655673980713,0.912190854549408
1657787293320712200,0.341712158203125,7.783848762512207,2.2170307636260986,0.8595184087753296
1657787293322712300,0.34371240234375,7.81257963180542,2.209848165512085,0.8403648138046265
1657787293324712400,0.34571240234375,7.870040416717529,2.212242364883423,0.811634361743927
1657787293326712300,0.34771240234375,7.939472198486328,2.2194249629974365,0.7781155705451965
1657787293328712400,0.34971240234375,7.965808391571045,2.205059766769409,0.7613561153411865
1657787293330712300,0.35171240234375,8.020874977111816,2.1787235736846924,0.7182605266571045
1657787293332712400,0.35371240234375,8.085518836975098,2.1547815799713135,0.6775590777397156
1657787293334712600,0.355712646484375,8.111854553222656,2.121262788772583,0.6536170840263367
1657787293336711000,0.3577109375,8.37761116027832,2.0925323963165283,0.5482721924781799
1657787293338710300,0.359710205078125,8.37761116027832,2.0925323963165283,0.5482721924781799
1657787293340709400,0.36170947265625,8.403946876525879,2.0805611610412598,0.5363011956214905
1657787293342708500,0.36370849609375,8.403946876525879,2.0805611610412598,0.5363011956214905
1657787293344708400,0.365708251953125,8.43746566772461,2.078166961669922,0.5363011956214905
1657787293346708500,0.36770849609375,8.482955932617188,2.073378562927246,0.5363011956214905
1657787293348708400,0.369708251953125,8.552388191223145,2.054224967956543,0.5410895943641663
1657787293350708500,0.37170849609375,8.626607894897461,2.0661959648132324,0.5530605912208557
1657787293352708400,0.373708251953125,8.657732963562012,2.0661959648132324,0.569819986820221
1657787293354708500,0.37570849609375,8.727164268493652,2.0374655723571777,0.5841852426528931
1657787293356708600,0.37770849609375,8.779836654663086,2.0207061767578125,0.6057330369949341
1657787293358709200,0.379709228515625,8.806173324584961,2.013523578643799,0.6344634294509888
1657787293360709400,0.38170947265625,8.885181427001953,2.013523578643799,0.6871358752250671
1657787293362709500,0.38370947265625,8.928277015686035,2.0015525817871094,0.7110779285430908
1657787293364709400,0.38570947265625,8.940248489379883,1.9919757843017578,0.7589619159698486
1657787293366709500,0.38770947265625,8.968978881835938,1.9704279899597168,0.828393816947937
1657787293368709400,0.38970947265625,9.016862869262695,1.9512743949890137,0.849941611289978
1657787293370709500,0.39170947265625,9.036016464233398,1.9536685943603516,0.9097966551780701
1657787293372709400,0.39370947265625,9.07911205291748,1.965639591217041,0.9720458984375
1657787293374709500,0.39570947265625,9.098265647888184,1.9704279899597168,0.9911994934082031
1657787293376708900,0.397708984375,9.239523887634277,2.008735179901123,1.1779472827911377
1657787293378708000,0.3997080078125,9.239523887634277,2.008735179901123,1.1779472827911377
1657787293380707000,0.40170703125,9.239523887634277,2.008735179901123,1.1779472827911377
1657787293382706200,0.4037060546875,9.239523887634277,2.008735179901123,1.1779472827911377
1657787293384705300,0.405705322265625,9.26107120513916,2.0183119773864746,1.194706678390503
1657787293386705000,0.407704833984375,9.308955192565918,2.0374655723571777,1.213860273361206
1657787293388704800,0.409704833984375,9.31853199005127,2.0590133666992188,1.2066776752471924
1657787293390705000,0.411704833984375,9.347262382507324,2.1092917919158936,1.2330138683319092
1657787293392704800,0.413704833984375,9.361627578735352,2.142810583114624,1.2545616626739502
1657787293394704600,0.41570458984375,9.359233856201172,2.1571757793426514,1.2665326595306396
1657787293396705800,0.417705810546875,9.34965705871582,2.1930887699127197,1.2761094570159912
1657787293398706700,0.419706787109375,9.347262382507324,2.2002713680267334,1.2832920551300049
1657787293400707300,0.421707275390625,9.34965705871582,2.2242133617401123,1.3048399686813354
1657787293402708200,0.423708251953125,9.337685585021973,2.2625205516815186,1.3311761617660522
1657787293404708400,0.425708251953125,9.332897186279297,2.27209734916687,1.3239935636520386
1657787293406708700,0.427708740234375,9.337685585021973,2.293645143508911,1.3192051649093628
1657787293408708900,0.429708984375,9.31853199005127,2.319981336593628,1.3263877630233765
1657787293410709000,0.431708984375,9.31613826751709,2.31758713722229,1.338358759880066
1657787293412708900,0.433708984375,9.29458999633789,2.3343467712402344,1.3694833517074585
1657787293414709000,0.435708984375,9.287407875061035,2.3558945655822754,1.3623007535934448
1657787293416708600,0.43770849609375,9.241917610168457,2.3511061668395996,1.381454348564148
1657787293418708000,0.4397080078125,9.239523887634277,2.3319525718688965,1.3910311460494995
1657787293420707300,0.441707275390625,9.239523887634277,2.3127987384796143,1.400607943534851
1657787293422706400,0.44370654296875,9.239523887634277,2.3127987384796143,1.400607943534851
1657787293424705500,0.44570556640625,9.239523887634277,2.3127987384796143,1.400607943534851
1657787293426705400,0.447705322265625,9.239523887634277,2.3127987384796143,1.400607943534851
1657787293428705500,0.44970556640625,9.232340812683105,2.296039342880249,1.4101848602294922
1657787293430705400,0.451705322265625,9.234735488891602,2.2625205516815186,1.4317326545715332
1657787293432705500,0.45370556640625,9.246706008911133,2.233790159225464,1.4532804489135742
1657787293434705400,0.455705322265625,9.253889083862305,2.2170307636260986,1.460463047027588
1657787293436705500,0.45770556640625,9.308955192565918,2.2146365642547607,1.45806884765625
1657787293438705400,0.459705322265625,9.359233856201172,2.207453966140747,1.4508862495422363
1657787293440705500,0.46170556640625,9.390357971191406,2.231395959854126,1.434126853942871
1657787293442705400,0.463705322265625,9.44063663482666,2.229001760482788,1.4101848602294922
1657787293444705500,0.46570556640625,9.457395553588867,2.248155355453491,1.3958195447921753
1657787293446708000,0.4677080078125,9.469367027282715,2.2577321529388428,1.3958195447921753
1657787293448708000,0.4697080078125,9.486125946044922,2.2601263523101807,1.381454348564148
1657787293450708200,0.471708251953125,9.505280494689941,2.2888567447662354,1.3670891523361206
1657787293452708400,0.473708251953125,9.514857292175293,2.2912509441375732,1.3838485479354858
1657787293454708500,0.47570849609375,9.519645690917969,2.2864625453948975,1.3958195447921753
1657787293456706300,0.477706298828125,9.543587684631348,2.27209734916687,1.3718775510787964
1657787293458706400,0.47970654296875,9.543587684631348,2.27209734916687,1.3718775510787964
1657787293460706800,0.481706787109375,9.550769805908203,2.276885747909546,1.3503297567367554
1657787293462709200,0.483709228515625,9.56513500213623,2.2816741466522217,1.3527239561080933
1657787293464709000,0.485709228515625,9.577106475830078,2.2816741466522217,1.359906554222107
1657787293466709200,0.487709228515625,9.584288597106934,2.27209734916687,1.3694833517074585
1657787293468709000,0.489709228515625,9.610625267028809,2.255337953567505,1.41257905960083
1657787293470709200,0.491709228515625,9.615413665771484,2.255337953567505,1.4317326545715332
1657787293472709000,0.493709228515625,9.634567260742188,2.2457611560821533,1.4652514457702637
1657787293474709200,0.495709228515625,9.658509254455566,2.2385785579681396,1.522712230682373
1657787293476709000,0.497709228515625,9.67766284942627,2.2361843585968018,1.556231141090393
1657787293478709200,0.499709228515625,9.699210166931152,2.2385785579681396,1.5873557329177856
1657787293480709000,0.501709228515625,9.725546836853027,2.2601263523101807,1.6376339197158813
1657787293482709200,0.503709228515625,9.76864242553711,2.2649147510528564,1.6424223184585571
1657787293484709400,0.50570947265625,9.87159252166748,2.2625205516815186,1.6280571222305298
1657787293486709200,0.507709228515625,9.967360496520996,2.279279947280884,1.6208745241165161
1657787293488709400,0.50970947265625,10.012850761413574,2.2864625453948975,1.625662922859192
1657787293490709500,0.51170947265625,10.094253540039062,2.293645143508911,1.6184803247451782
1657787293492709400,0.51370947265625,10.161291122436523,2.315192937850952,1.5897499322891235
1657787293494709500,0.51570947265625,10.19959831237793,2.319981336593628,1.580173134803772
1657787293496708600,0.51770849609375,10.278607368469238,2.315192937850952,1.4891934394836426
1657787293498707700,0.519707763671875,10.278607368469238,2.315192937850952,1.4891934394836426
1657787293500707300,0.521707275390625,10.283395767211914,2.3247697353363037,1.4676456451416016
1657787293502707500,0.52370751953125,10.307337760925293,2.3367409706115723,1.436521053314209
1657787293504707300,0.525707275390625,10.29057788848877,2.3127987384796143,1.403002142906189
1657787293506707000,0.52770703125,10.283395767211914,2.2888567447662354,1.3958195447921753
1657787293508706800,0.529706787109375,10.259453773498535,2.229001760482788,1.3646949529647827
1657787293510706700,0.531706787109375,10.216358184814453,2.140416383743286,1.3407529592514038
1657787293512706800,0.533706787109375,10.187627792358398,2.094926595687866,1.3311761617660522
1657787293514706700,0.535706787109375,10.146925926208496,2.0470423698425293,1.3215993642807007
1657787293516707600,0.53770751953125,10.170867919921875,2.03507137298584,1.3239935636520386
1657787293518707500,0.53970751953125,10.201992988586426,2.0398597717285156,1.314416766166687
1657787293520707300,0.541707275390625,10.264242172241211,2.0374655723571777,1.2689268589019775
1657787293522706200,0.5437060546875,10.336068153381348,2.0398597717285156,1.1875240802764893
1657787293524706300,0.545706298828125,10.360010147094727,2.032677173614502,1.139639973640442
1657787293526706200,0.5477060546875,10.400711059570312,2.013523578643799,1.048660397529602
1657787293528706300,0.549706298828125,10.427047729492188,1.9919757843017578,0.9696516990661621
1657787293530706200,0.5517060546875,10.410287857055664,1.9823989868164062,0.9457096457481384
1657787293532706300,0.553706298828125,10.369586944580078,1.9608511924743652,0.9050082564353943
1657787293534706400,0.55570654296875,10.338461875915527,1.9393033981323242,0.8882488012313843
1657787293536705500,0.55770556640625,10.201992988586426,1.9321208000183105,1.194706678390503
1657787293538704600,0.55970458984375,10.201992988586426,1.9321208000183105,1.194706678390503
1657787293540703700,0.561703857421875,10.201992988586426,1.9321208000183105,1.194706678390503
1657787293542702800,0.563702880859375,10.201992988586426,1.9321208000183105,1.194706678390503
1657787293544703000,0.565702880859375,10.216358184814453,1.9560627937316895,1.2761094570159912
1657787293546702800,0.567702880859375,10.259453773498535,2.030282974243164,1.436521053314209
1657787293548702700,0.56970263671875,10.29057788848877,2.0805611610412598,1.4915876388549805
1657787293550702800,0.571702880859375,10.37916374206543,2.140416383743286,1.4987702369689941
1657787293552702700,0.57370263671875,10.47014331817627,2.1116859912872314,1.4197616577148438
1657787293554702600,0.57570263671875,10.532392501831055,2.0805611610412598,1.3910311460494995
1657787293556703700,0.577703857421875,10.692804336547852,1.9991583824157715,1.3766659498214722
1657787293558704600,0.57970458984375,10.879551887512207,1.9033904075622559,1.3838485479354858
1657787293560705000,0.581705078125,10.980108261108398,1.845929503440857,1.41257905960083
1657787293562705200,0.583705078125,11.214739799499512,1.7118542194366455,1.4676456451416016
1657787293564704800,0.585704833984375,11.4972562789917,1.5705963373184204,1.5083470344543457
1657787293566705000,0.587704833984375,11.645696640014648,1.4915876388549805,1.525106430053711
1657787293568704800,0.589704833984375,11.942577362060547,1.3766659498214722,1.534683346748352
1657787293570705000,0.591704833984375,12.229881286621094,1.2545616626739502,1.5873557329177856
1657787293572705000,0.593705078125,12.366351127624512,1.1875240802764893,1.6112977266311646
1657787293574705000,0.595704833984375,12.653655052185059,1.036689281463623,1.6496049165725708
1657787293576704000,0.5977041015625,13.5778169631958,0.5386953949928284,1.8100165128707886
1657787293578703000,0.599703125,13.5778169631958,0.5386953949928284,1.8100165128707886
1657787293580702500,0.601702392578125,13.5778169631958,0.5386953949928284,1.8100165128707886
1657787293582701600,0.60370166015625,13.659219741821289,0.5003881454467773,1.8339585065841675
1657787293584700700,0.60570068359375,13.72625732421875,0.45010992884635925,1.8722656965255737
1657787293586699800,0.60769970703125,13.72625732421875,0.45010992884635925,1.8722656965255737
1657787293588699600,0.60969970703125,13.829208374023438,0.35434186458587646,1.941697597503662
1657787293590699800,0.61169970703125,13.855544090270996,0.33279404044151306,1.9847931861877441
1657787293592699600,0.61369970703125,13.879486083984375,0.3016694188117981,2.0470423698425293
1657787293594699500,0.615699462890625,13.865120887756348,0.2825157940387726,2.1092917919158936
1657787293596700400,0.617700439453125,13.862727165222168,0.26336219906806946,2.142810583114624
1657787293598701300,0.619701416015625,13.81484317779541,0.2753331959247589,2.1954829692840576
1657787293600702200,0.6217021484375,13.728652000427246,0.31842881441116333,2.1954829692840576
1657787293602703000,0.623703125,13.654431343078613,0.33758243918418884,2.183511972427368
1657787293604703000,0.625702880859375,13.491625785827637,0.3734954595565796,2.166752576828003
1657787293606703000,0.627703125,13.304878234863281,0.38067805767059326,2.126051187515259
1657787293608703000,0.629702880859375,13.20671558380127,0.38546648621559143,2.0805611610412598
1657787293610703000,0.631703125,12.976872444152832,0.3974374830722809,1.9800047874450684
1657787293612703200,0.633703125,12.735057830810547,0.3926490843296051,1.8602946996688843
1657787293614703000,0.635703125,12.615347862243652,0.38067805767059326,1.8148049116134644
1657787293616702200,0.6377021484375,11.616966247558594,0.21547815203666687,1.6041151285171509
1657787293618701300,0.639701416015625,11.616966247558594,0.21547815203666687,1.6041151285171509
1657787293620700400,0.641700439453125,11.492467880249023,0.19393034279346466,1.5873557329177856
1657787293622699500,0.643699462890625,11.379940032958984,0.16519992053508759,1.5729905366897583
1657787293624699400,0.645699462890625,11.379940032958984,0.16519992053508759,1.5729905366897583
1657787293626698800,0.64769873046875,11.255441665649414,0.11971008777618408,1.556231141090393
1657787293628699000,0.649698974609375,11.140520095825195,0.07182604819536209,1.5442601442337036
1657787293630698800,0.65169873046875,10.946589469909668,0.009576806798577309,1.534683346748352
1657787293632698600,0.65369873046875,10.86518669128418,-0.021547814831137657,1.5418659448623657
1657787293634698800,0.65569873046875,10.728716850280762,-0.08858546614646912,1.5203180313110352
1657787293636699600,0.65769970703125,10.647314071655273,-0.15083470940589905,1.5203180313110352
1657787293638700300,0.6597001953125,10.611401557922363,-0.1604115068912506,1.5322890281677246
1657787293640701200,0.661701171875,10.53478717803955,-0.20111294090747833,1.5514427423477173
1657787293642702000,0.6637021484375,10.44620132446289,-0.24181437492370605,1.5873557329177856
1657787293644703000,0.665702880859375,10.398317337036133,-0.26096799969673157,1.6089035272598267
1657787293646703600,0.66770361328125,10.304943084716797,-0.3064578175544739,1.6711528301239014
1657787293648703500,0.669703369140625,10.240300178527832,-0.31842881441116333,1.699883222579956
1657787293650703600,0.67170361328125,10.228328704833984,-0.3495534360408783,1.7286136150360107
1657787293652703500,0.673703369140625,10.19720458984375,-0.3902548849582672,1.8195933103561401
1657787293654703600,0.67570361328125,10.178050994873047,-0.4189853072166443,1.9105730056762695
1657787293656702700,0.67770263671875,10.182839393615723,-0.45489832758903503,2.0422539710998535
1657787293658702300,0.679702392578125,10.194809913635254,-0.4620809257030487,2.0853497982025146
1657787293660702700,0.68170263671875,10.23311710357666,-0.4596867263317108,2.1140801906585693
1657787293662702800,0.683702880859375,10.26663589477539,-0.47165772318840027,2.126051187515259
1657787293664702700,0.68570263671875,10.35522174835205,-0.47165772318840027,2.123656988143921
1657787293666702800,0.687702880859375,10.436624526977539,-0.4644751250743866,2.121262788772583
1657787293668702200,0.6897021484375,10.477325439453125,-0.4668693244457245,2.1284453868865967
1657787293670702300,0.691702392578125,10.597036361694336,-0.45010992884635925,2.1140801906585693
1657787293672702200,0.6937021484375,10.767024040222168,-0.44532153010368347,2.0685901641845703
1657787293674702000,0.6957021484375,10.881945610046387,-0.4381389021873474,2.0446481704711914
1657787293676703500,0.697703369140625,11.083059310913086,-0.4213795065879822,2.006340980529785
1657787293678704400,0.699704345703125,11.248258590698242,-0.3902548849582672,1.968033790588379
1657787293680705300,0.701705322265625,11.339238166809082,-0.3758896589279175,1.9632453918457031
1657787293682706200,0.7037060546875,11.4757080078125,-0.3232172429561615,1.9584569931030273
1657787293684706600,0.70570654296875,11.583447456359863,-0.27054479718208313,1.9536685943603516
1657787293686707200,0.707707275390625,11.6337251663208,-0.2513911724090576,1.9560627937316895
1657787293688707300,0.709707275390625,11.703157424926758,-0.20111294090747833,1.9752163887023926
1657787293690707200,0.711707275390625,11.736676216125488,-0.1604115068912506,1.9776105880737305
1657787293692707300,0.713707275390625,11.734281539916992,-0.15083470940589905,2.0015525817871094
1657787293694707500,0.71570751953125,11.684003829956055,-0.1412578970193863,2.0183119773864746
1657787293696706600,0.71770654296875,11.492467880249023,-0.13168109953403473,2.008735179901123
1657787293698705700,0.71970556640625,11.411064147949219,-0.12928688526153564,2.008735179901123
1657787293700705500,0.72170556640625,11.324872970581055,-0.13168109953403473,2.011129379272461
1657787293702705700,0.72370556640625,10.778995513916016,-0.15801730751991272,2.145204782485962
1657787293704705500,0.72570556640625,10.568305969238281,-0.16998831927776337,2.22660756111145
1657787293706706000,0.727705810546875,10.642525672912598,-0.15083470940589905,2.27209734916687
1657787293708705800,0.729705810546875,10.549152374267578,-0.1843535304069519,2.279279947280884
1657787293710706000,0.731705810546875,10.44859504699707,-0.21308395266532898,2.2697031497955322
1657787293712705800,0.733705810546875,10.240300178527832,-0.2968810200691223,2.250549554824829
1657787293714705700,0.73570556640625,10.003273963928223,-0.3926490843296051,2.2194249629974365
1657787293716706300,0.737706298828125,9.888352394104004,-0.45010992884635925,2.185906171798706
1657787293718706700,0.739706787109375,9.541193008422852,-0.6416460275650024,2.1380221843719482
1657787293720706300,0.741706298828125,9.172486305236816,-0.8858546018600464,2.054224967956543
1657787293722706400,0.74370654296875,9.033622741699219,-1.0271124839782715,1.9919757843017578
1657787293724706300,0.745706298828125,8.89954662322998,-1.2210428714752197,1.8531121015548706
1657787293726706200,0.7477060546875,8.693645477294922,-1.3072341680526733,1.742978811264038
1657787293728706600,0.74970654296875,8.540416717529297,-1.3048399686813354,1.721431016921997
1657787293730706700,0.751706787109375,8.200440406799316,-1.2282254695892334,1.6974890232086182
1657787293732706800,0.753706787109375,7.877223014831543,-1.0654197931289673,1.7166426181793213
1657787293734706700,0.755706787109375,7.764695167541504,-0.9481038451194763,1.7501614093780518
1657787293736705300,0.757705322265625,7.905953407287598,0.4381389021873474,1.6328455209732056
1657787293738704600,0.75970458984375,7.905953407287598,0.4381389021873474,1.6328455209732056
1657787293740703700,0.761703857421875,8.061576843261719,0.646434485912323,1.6112977266311646
1657787293742702800,0.763702880859375,8.061576843261719,0.646434485912323,1.6112977266311646
1657787293744702700,0.76570263671875,8.193257331848145,0.8307880163192749,1.5658079385757446
1657787293746702800,0.767702880859375,8.28663158416748,1.0079588890075684,1.4844050407409668
1657787293748702700,0.76970263671875,8.43746566772461,1.2617442607879639,1.3000515699386597
1657787293750702800,0.771702880859375,8.518868446350098,1.4437036514282227,1.1563993692398071
1657787293752704000,0.7737041015625,8.506897926330566,1.5083470344543457,1.1252747774124146
1657787293754704000,0.775703857421875,8.4015531539917,1.5825673341751099,1.170764684677124
1657787293756704800,0.777704833984375,8.188468933105469,1.6352397203445435,1.3335703611373901
1657787293758705700,0.77970556640625,8.054393768310547,1.6424223184585571,1.4652514457702637
1657787293760705500,0.78170556640625,7.810185432434082,1.6519991159439087,1.7166426181793213
1657787293762705700,0.78370556640625,7.5875244140625,1.6280571222305298,1.8842366933822632
1657787293764705300,0.785705322265625,7.4893622398376465,1.5682021379470825,1.9345149993896484
1657787293766705400,0.787705322265625,7.319374084472656,1.4317326545715332,1.9321208000183105
1657787293768705500,0.78970556640625,7.1805100440979,1.2761094570159912,1.867477297782898
1657787293770705700,0.79170556640625,7.108684062957764,1.2090718746185303,1.7980455160140991
1657787293772705300,0.793705322265625,6.945878505706787,1.0678139925003052,1.6136919260025024
1657787293774705400,0.795705322265625,6.771101474761963,0.9361328482627869,1.403002142906189
1657787293776704800,0.797704833984375,5.983409404754639,0.689530074596405,0.6488286852836609
1657787293778704000,0.799703857421875,5.983409404754639,0.689530074596405,0.6488286852836609
1657787293780703000,0.801702880859375,5.983409404754639,0.689530074596405,0.6488286852836609
1657787293782702000,0.8037021484375,5.882853031158447,0.6847416758537292,0.5746083855628967
1657787293784701400,0.805701416015625,5.882853031158447,0.6847416758537292,0.5746083855628967
1657787293786700500,0.807700439453125,5.708076000213623,0.727837324142456,0.44532153010368347
1657787293788700700,0.80970068359375,5.653009414672852,0.7541735172271729,0.38307225704193115
1657787293790700800,0.81170068359375,5.562029838562012,0.7709329724311829,0.22026655077934265
1657787293792701000,0.813700927734375,5.538087844848633,0.7852981686592102,-0.009576806798577309
1657787293794700800,0.81570068359375,5.55245304107666,0.7805097699165344,-0.13168109953403473
1657787293796701700,0.81770166015625,5.5883660316467285,0.7876923680305481,-0.3495534360408783
1657787293798702600,0.81970263671875,5.660192012786865,0.790086567401886,-0.5434837937355042
1657787293800702500,0.821702392578125,5.7200469970703125,0.7661445140838623,-0.6105214357376099
1657787293802703400,0.823703369140625,5.8565168380737305,0.7254431247711182,-0.7206547260284424
1657787293804703200,0.825703125,6.028899192810059,0.6871358752250671,-0.7972691655158997
1657787293806703400,0.827703369140625,6.107907772064209,0.6512228846549988,-0.849941611289978
1657787293808703200,0.829703125,6.297049522399902,0.6129156351089478,-0.9265560507774353
1657787293810703400,0.831703369140625,6.512527942657471,0.6344634294509888,-0.950498104095459
1657787293812703200,0.833703125,6.6035075187683105,0.6488286852836609,-1.0223240852355957
1657787293814703000,0.835703125,6.744765281677246,0.7182605266571045,-1.113303780555725
1657787293816702500,0.837702392578125,6.25395393371582,1.3670891523361206,-1.2210428714752197
1657787293818701600,0.83970166015625,6.25395393371582,1.3670891523361206,-1.2210428714752197
1657787293820700700,0.84170068359375,6.153397560119629,1.460463047027588,-1.2114660739898682
1657787293822699800,0.84369970703125,6.043264389038086,1.5394717454910278,-1.194706678390503
1657787293824699600,0.84569970703125,6.043264389038086,1.5394717454910278,-1.194706678390503
1657787293826698500,0.847698486328125,6.043264389038086,1.5394717454910278,-1.194706678390503
1657787293828698600,0.84969873046875,5.8349690437316895,1.7094600200653076,-1.170764684677124
1657787293830698500,0.851698486328125,5.751171588897705,1.766920804977417,-1.0414776802062988
1657787293832699000,0.853698974609375,5.607519626617432,1.8195933103561401,-0.8379706144332886
1657787293834698800,0.85569873046875,5.5452704429626465,1.8602946996688843,-0.7182605266571045
1657787293836699600,0.85769970703125,5.535693645477295,1.8602946996688843,-0.44771572947502136
1657787293838700500,0.859700439453125,5.554847240447998,1.8626888990402222,-0.13407529890537262
1657787293840701400,0.861701416015625,5.581183433532715,1.86508309841156,0.023942016065120697
1657787293842702300,0.863702392578125,5.605125427246094,1.86508309841156,0.3280056416988373
1657787293844703200,0.865703125,5.703287601470947,1.8818424940109253,0.586579442024231
1657787293846704000,0.8677041015625,5.76793098449707,1.9105730056762695,0.6919242739677429
1657787293848704000,0.8697041015625,5.935525417327881,1.9273324012756348,0.8834604024887085
1657787293850704000,0.871703857421875,6.148609161376953,1.9800047874450684,0.9624691009521484
1657787293852703700,0.873703857421875,6.277895927429199,2.099714994430542,0.9672574996948242
1657787293854703900,0.875703857421875,6.608295917510986,2.1380221843719482,0.9313444495201111
1657787293856703000,0.877702880859375,7.139808654785156,2.3080103397369385,0.7805097699165344
1657787293858702800,0.879702880859375,7.139808654785156,2.360682964324951,0.7805097699165344
1657787293860703700,0.881703857421875,7.424718856811523,2.4157495498657227,0.6919242739677429
1657787293862703400,0.883703369140625,7.652167797088623,2.456450939178467,0.6344634294509888
1657787293864703200,0.885703125,7.771877765655518,2.492363929748535,0.608127236366272
1657787293866703400,0.887703369140625,8.001721382141113,2.5091233253479004,0.5291185975074768
1657787293868703200,0.889703125,8.229170799255371,2.5234885215759277,0.3998316824436188
1657787293870703000,0.891703125,8.327332496643066,2.535459518432617,0.33997663855552673
1657787293872702200,0.8937021484375,8.506897926330566,2.540247917175293,0.22744916379451752
1657787293874702000,0.8957021484375,8.643367767333984,2.564189910888672,0.08140286058187485
1657787293876703000,0.897702880859375,8.729558944702148,2.5546131134033203,0.019153613597154617
1657787293878703900,0.899703857421875,8.765471458435059,2.5450363159179688,-0.05985504388809204
1657787293884789200,0.905789306640625,8.822932243347168,2.497152328491211,-0.1173158809542656
1657787293886790100,0.9077900390625,8.837297439575195,2.477998733520508,-0.14604631066322327
1657787293888790800,0.909790771484375,8.839692115783691,2.4420857429504395,-0.2082955539226532
1657787293890791700,0.911791748046875,8.820538520812988,2.432508945465088,-0.26575639843940735
1657787293892791600,0.91379150390625,8.827720642089844,2.4157495498657227,-0.28730419278144836
1657787293894791700,0.915791748046875,8.839692115783691,2.4229321479797363,-0.33997663855552673
1657787293896791600,0.91779150390625,8.870816230773926,2.4181437492370605,-0.3878606855869293
1657787293898792000,0.9197919921875,8.904335021972656,2.410961151123047,-0.40701428055763245
1657787293900791300,0.921791259765625,9.004891395568848,2.3965959548950195,-0.395043283700943
1657787293902790400,0.923790283203125,9.004891395568848,2.3965959548950195,-0.395043283700943
1657787293904790000,0.9257900390625,9.031228065490723,2.3965959548950195,-0.395043283700943
1657787293906790000,0.927789794921875,9.062353134155273,2.425326347351074,-0.3711012601852417
1657787293908790000,0.9297900390625,9.038411140441895,2.470816135406494,-0.3423708379268646
1657787293910790400,0.931790283203125,9.016862869262695,2.5067291259765625,-0.3256114423274994
1657787293912790300,0.933790283203125,9.000102996826172,2.561795711517334,-0.26575639843940735
1657787293914790400,0.935790283203125,8.997709274291992,2.631227731704712,-0.19632454216480255
1657787293916790300,0.937790283203125,9.009679794311523,2.671929121017456,-0.1843535304069519
1657787293918790100,0.9397900390625,9.04319953918457,2.7126305103302,-0.19632454216480255
1657787293920791000,0.941791015625,9.107842445373535,2.762908697128296,-0.24899697303771973
1657787293922791200,0.943791259765625,9.13417911529541,2.782062292098999,-0.2801215946674347
1657787293924791300,0.945791259765625,9.172486305236816,2.7964274883270264,-0.3878606855869293
1657787293926791700,0.947791748046875,9.198822021484375,2.784456491470337,-0.4812345504760742
1657787293928791800,0.949791748046875,9.210793495178223,2.7892448902130127,-0.5674257874488831
1657787293930791700,0.951791748046875,9.263465881347656,2.7892448902130127,-0.706289529800415
1657787293932791800,0.953791748046875,9.296984672546387,2.7557260990142822,-0.8547300100326538
1657787293934792000,0.9557919921875,9.301773071289062,2.7533318996429443,-0.9409212470054626
1657787293936791800,0.957791748046875,9.308955192565918,2.7676970958709717,-1.094150185585022
1657787293938792000,0.9597919921875,9.29458999633789,2.762908697128296,-1.2473790645599365
1657787293940791000,0.961791015625,9.055170059204102,2.806004285812378,-1.5873557329177856
1657787293942790100,0.9637900390625,9.055170059204102,2.806004285812378,-1.5873557329177856
1657787293944789800,0.965789794921875,9.01207447052002,2.8347349166870117,-1.6160861253738403
1657787293946788900,0.967788818359375,9.01207447052002,2.8347349166870117,-1.6160861253738403
1657787293948788200,0.969788330078125,8.978555679321289,2.8658595085144043,-1.6400281190872192
1657787293950787300,0.971787353515625,8.945036888122559,2.9017724990844727,-1.644816517829895
1657787293952787200,0.973787109375,8.909123420715332,2.9448680877685547,-1.6543933153152466
1657787293954787300,0.975787353515625,8.858845710754395,3.066972494125366,-1.7118542194366455
1657787293956787200,0.977787109375,8.877999305725098,3.2178070545196533,-1.7525556087493896
1657787293958786800,0.979786865234375,8.88757610321045,3.2824504375457764,-1.7573440074920654
1657787293960787700,0.98178759765625,8.722375869750977,3.428496837615967,-1.7573440074920654
1657787293962788600,0.98378857421875,7.884405612945557,3.7421371936798096,-1.6663644313812256
1657787293964788700,0.985788818359375,7.137414455413818,3.93367338180542,-1.6280571222305298
1657787293966787800,0.987787841796875,5.490203857421875,4.271255970001221,-1.6184803247451782
1657787293968788000,0.9897880859375,5.483021259307861,4.359841346740723,-1.5538369417190552
1657787293970787600,0.99178759765625,6.026504993438721,4.309563159942627,-1.522712230682373
1657787293972787500,0.993787353515625,7.091924667358398,4.1180267333984375,-1.5873557329177856
1657787293974787600,0.99578759765625,7.50851583480835,3.955221176147461,-1.8842366933822632
1657787293976787500,0.997787353515625,7.50851583480835,3.907337188720703,-2.0590133666992188
1657787293978787600,0.99978759765625,7.376834869384766,3.8786067962646484,-2.3558945655822754
1657787293980786700,1.00178662109375,7.494150638580322,3.9384617805480957,-2.470816135406494
1657787293982785800,1.003785888671875,7.518092632293701,3.914519786834717,-2.43011474609375
1657787293984785200,1.00578515625,7.518092632293701,3.914519786834717,-2.43011474609375
1657787293986784300,1.0077841796875,7.518092632293701,3.914519786834717,-2.43011474609375
1657787293988784000,1.0097841796875,7.518092632293701,3.914519786834717,-2.43011474609375
1657787293990784300,1.0117841796875,7.630620002746582,3.818751811981201,-2.3582887649536133
1657787293992784100,1.0137841796875,7.8221564292907715,3.663128614425659,-2.276885747909546
1657787293994784000,1.015783935546875,7.9322896003723145,3.5625722408294678,-2.2385785579681396
1657787293996784000,1.0177841796875,8.166921615600586,3.313575267791748,-2.188300371170044
1657787293998784000,1.019783935546875,8.382399559020996,3.026270866394043,-2.140416383743286
1657787294000785400,1.021785400390625,8.499714851379395,2.8610711097717285,-2.1140801906585693
1657787294002786300,1.023786376953125,8.734347343444824,2.5498247146606445,-2.0590133666992188
1657787294004787200,1.025787109375,8.95461368560791,2.2577321529388428,-2.051830768585205
1657787294006788000,1.0277880859375,9.064746856689453,2.126051187515259,-2.0661959648132324
1657787294008788200,1.029788330078125,9.280224800109863,1.9177556037902832,-2.123656988143921
1657787294010789000,1.0317890625,9.490914344787598,1.8483237028121948,-2.1930887699127197
1657787294012789200,1.033789306640625,9.601048469543457,1.8195933103561401,-2.2146365642547607
1657787294014789000,1.0357890625,9.794978141784668,1.8339585065841675,-2.2361843585968018
1657787294016789200,1.037789306640625,9.96017837524414,1.8842366933822632,-2.1954829692840576
1657787294018789400,1.039789306640625,10.022427558898926,1.9129672050476074,-2.164358377456665
1657787294020788500,1.04178857421875,10.099041938781738,2.2649147510528564,-1.6950948238372803
1657787294022787600,1.04378759765625,10.099041938781738,2.2649147510528564,-1.6950948238372803
1657787294024786700,1.04578662109375,10.089465141296387,2.3080103397369385,-1.6136919260025024
1657787294026786800,1.047786865234375,10.070311546325684,2.346317768096924,-1.5418659448623657
1657787294028786200,1.0497861328125,10.0487642288208,2.389413356781006,-1.482010841369629
1657787294030786300,1.051786376953125,10.0487642288208,2.389413356781006,-1.482010841369629
1657787294032786400,1.053786376953125,10.03918743133545,2.43011474609375,-1.4389152526855469
1657787294034786300,1.055786376953125,10.03918743133545,2.5330653190612793,-1.3335703611373901
1657787294036786000,1.057785888671875,10.03918743133545,2.5905263423919678,-1.290474772453308
1657787294038785800,1.059785888671875,10.070311546325684,2.7078421115875244,-1.2282254695892334
1657787294040786700,1.06178662109375,10.094253540039062,2.829946517944336,-1.1444283723831177
1657787294042787600,1.06378759765625,10.099041938781738,2.918531894683838,-1.1324573755264282
1657787294044788200,1.065788330078125,10.192416191101074,3.1220390796661377,-1.1252747774124146
1657787294046789000,1.0677890625,10.314519882202148,3.332728862762451,-0.9720458984375
1657787294048789200,1.069789306640625,10.340856552124023,3.406949043273926,-0.8786720037460327
1657787294050789600,1.07178955078125,10.314519882202148,3.5003228187561035,-0.6129156351089478
1657787294052789800,1.073789794921875,10.247482299804688,3.4979286193847656,-0.33997663855552673
1657787294054790000,1.075789794921875,10.192416191101074,3.485957622528076,-0.22026655077934265
1657787294056789500,1.07778955078125,10.065523147583008,3.4356794357299805,-0.038307227194309235
1657787294058789400,1.079789306640625,9.907505989074707,3.399766445159912,0.07422025501728058
1657787294060788000,1.0817880859375,9.725546836853027,3.4093432426452637,0.10295066982507706
1657787294062788000,1.0837880859375,9.632172584533691,3.4189200401306152,0.08140286058187485
1657787294064788000,1.0857880859375,9.447818756103516,3.4548330307006836,-0.002394201699644327
1657787294066788000,1.0877880859375,9.354445457458496,3.490746021270752,-0.06224924325942993
1657787294068788500,1.08978857421875,9.174880027770996,3.60566782951355,-0.17238251864910126
1657787294070788900,1.091788818359375,9.004891395568848,3.7253777980804443,-0.2992752194404602
1657787294072788700,1.093788818359375,8.909123420715332,3.773261785507202,-0.36152446269989014
1657787294074788900,1.095788818359375,8.724770545959473,3.8786067962646484,-0.42616790533065796
1657787294076788700,1.097788818359375,8.578723907470703,3.957615375518799,-0.4812345504760742
1657787294078788600,1.09978857421875,8.521263122558594,3.9863457679748535,-0.4884171485900879
1657787294080790000,1.1017900390625,8.4015531539917,4.0294413566589355,-0.4812345504760742
1657787294082790700,1.103790771484375,8.284236907958984,4.034229755401611,-0.4668693244457245
1657787294084791600,1.10579150390625,8.224382400512695,4.046200752258301,-0.4381389021873474
1657787294086792200,1.107792236328125,8.126219749450684,4.082113742828369,-0.33758243918418884
1657787294088793000,1.10979296875,8.020874977111816,4.10366153717041,-0.2059013396501541
1657787294090793000,1.11179296875,7.970596790313721,4.110844135284424,-0.12928688526153564
1657787294092792800,1.113792724609375,7.870040416717529,4.101267337799072,0.021547814831137657
1657787294094793700,1.115793701171875,7.793426036834717,4.10366153717041,0.20111294090747833
1657787294096794000,1.117794189453125,7.76948356628418,4.110844135284424,0.2944868206977844
1657787294098794000,1.1197939453125,7.7527241706848145,4.10366153717041,0.4836287498474121
1657787294100793300,1.12179345703125,7.764695167541504,4.106055736541748,0.7852981686592102
1657787294102792400,1.12379248046875,7.793426036834717,4.1156325340271,0.8978256583213806
1657787294104792300,1.125792236328125,7.817368030548096,4.10366153717041,0.9959878921508789
1657787294106792400,1.12779248046875,7.884405612945557,3.995922565460205,1.1468225717544556
1657787294108792300,1.129792236328125,7.9322896003723145,3.9193081855773926,1.173158884048462
1657787294110792000,1.1317919921875,8.063970565795898,3.706224203109741,1.1300631761550903
1657787294112791800,1.133791748046875,8.241141319274902,3.4524388313293457,1.0821791887283325
1657787294114791700,1.135791748046875,8.341697692871094,3.3231520652770996,1.1109095811843872
1657787294116792000,1.1377919921875,8.545205116271973,3.177105665206909,1.290474772453308
1657787294118792200,1.139792236328125,8.710405349731445,3.136404275894165,1.6735470294952393
1657787294120792800,1.141792724609375,8.789413452148438,3.138798475265503,1.900996208190918
1657787294122793500,1.14379345703125,8.983344078063965,3.222595453262329,2.4133553504943848
1657787294124793600,1.145793701171875,9.249100685119629,3.383007049560547,2.978386878967285
1657787294126793500,1.14779345703125,9.40711784362793,3.4596214294433594,3.294421434402466
1657787294128793600,1.149793701171875,9.751882553100586,3.550601005554199,3.9384617805480957
1657787294130793200,1.151793212890625,10.07509994506836,3.6080620288848877,4.5394062995910645
1657787294132793300,1.15379345703125,10.211569786071777,3.627215623855591,4.795586109161377
1657787294134793500,1.15579345703125,10.450989723205566,3.5936968326568604,5.188534259796143
1657787294136793300,1.15779345703125,10.688015937805176,3.4979286193847656,5.492598056793213
1657787294138793500,1.15979345703125,10.793360710144043,3.44765043258667,5.602731227874756
1657787294140792300,1.161792236328125,11.494861602783203,3.2345664501190186,6.25395393371582
1657787294142791400,1.16379150390625,11.494861602783203,3.2345664501190186,6.25395393371582
1657787294144790500,1.16579052734375,11.561899185180664,3.2321722507476807,6.376058578491211
1657787294146789600,1.16778955078125,11.561899185180664,3.2321722507476807,6.376058578491211
1657787294148789500,1.16978955078125,11.614571571350098,3.2345664501190186,6.507739543914795
1657787294150789400,1.171789306640625,11.65766716003418,3.24414324760437,6.646603107452393
1657787294152789200,1.173789306640625,11.700762748718262,3.2776620388031006,6.9147539138793945
1657787294154789600,1.17578955078125,11.69118595123291,3.287238836288452,7.166144847869873
1657787294156789500,1.17778955078125,11.667243957519531,3.28963303565979,7.2667012214660645
1657787294158789600,1.17978955078125,11.585841178894043,3.3016040325164795,7.431901454925537
1657787294160790500,1.18179052734375,11.463737487792969,3.339911460876465,7.5994954109191895
1657787294162791200,1.183791259765625,11.382333755493164,3.361459255218506,7.656956195831299
1657787294164791300,1.185791259765625,11.20516300201416,3.361459255218506,7.764695167541504
1657787294166791200,1.187791259765625,10.98968505859375,3.397372245788574,7.850886821746826
1657787294168791300,1.189791259765625,10.891522407531738,3.404554843902588,7.889194011688232
1657787294170791700,1.191791748046875,10.680832862854004,3.4380736351013184,7.915530204772949
1657787294172791600,1.19379150390625,10.460566520690918,3.4572272300720215,7.9538373947143555
1657787294174791700,1.195791748046875,10.3456449508667,3.469198226928711,7.977779388427734
1657787294176791800,1.197791748046875,10.127772331237793,3.514688014984131,8.052000045776367
1657787294178791700,1.199791748046875,9.921871185302734,3.555389642715454,8.166921615600586
1657787294180790800,1.201790771484375,9.330503463745117,3.445256233215332,8.724770545959473
1657787294182789600,1.20378955078125,9.330503463745117,3.445256233215332,8.724770545959473
1657787294184788700,1.205788818359375,9.330503463745117,3.445256233215332,8.724770545959473
1657787294186787800,1.207787841796875,9.232340812683105,3.40216064453125,8.782231330871582
1657787294188787700,1.20978759765625,9.232340812683105,3.40216064453125,8.782231330871582
1657787294190787600,1.21178759765625,9.002497673034668,3.3207578659057617,8.894758224487305
1657787294192787500,1.213787353515625,8.901941299438477,3.2776620388031006,8.95461368560791
1657787294194786600,1.21578662109375,8.748712539672852,3.1699230670928955,9.064746856689453
1657787294196786700,1.21778662109375,8.549993515014648,3.090914487838745,9.182063102722168
1657787294198786600,1.21978662109375,8.447042465209961,3.0573954582214355,9.239523887634277
1657787294200787500,1.221787353515625,8.28663158416748,2.9520506858825684,9.340080261230469
1657787294202788400,1.223788330078125,8.16213321685791,2.846705913543701,9.40951156616211
1657787294204789200,1.225789306640625,8.12861442565918,2.808398485183716,9.421483039855957
1657787294206790100,1.2277900390625,8.12861442565918,2.7509377002716064,9.478943824768066
1657787294208790000,1.2297900390625,8.210017204284668,2.7030537128448486,9.505280494689941
1657787294210790400,1.231790283203125,8.25311279296875,2.6671407222747803,9.512462615966797
1657787294212790800,1.233790771484375,8.353669166564941,2.6144683361053467,9.519645690917969
1657787294214789600,1.23578955078125,8.473379135131836,2.585737943649292,9.488520622253418
1657787294216789800,1.237789794921875,8.52365779876709,2.5761611461639404,9.459790229797363
1657787294218789600,1.23978955078125,8.602665901184082,2.5474305152893066,9.356839179992676
1657787294220788700,1.241788818359375,8.679280281066895,2.252943754196167,8.88757610321045
1657787294222787800,1.243787841796875,8.679280281066895,2.252943754196167,8.88757610321045
1657787294224787200,1.245787109375,8.674491882324219,2.2170307636260986,8.83011531829834
1657787294226786300,1.247786376953125,8.652944564819336,2.166752576828003,8.779836654663086
1657787294228786200,1.2497861328125,8.652944564819336,2.166752576828003,8.779836654663086
1657787294230785000,1.251784912109375,8.652944564819336,2.166752576828003,8.779836654663086
1657787294232785000,1.253784912109375,8.602665901184082,2.056619167327881,8.686463356018066
1657787294234785000,1.255784912109375,8.569147109985352,2.0207061767578125,8.629002571105957
1657787294236785000,1.257784912109375,8.516474723815918,1.9584569931030273,8.511686325073242
1657787294238784800,1.25978466796875,8.451830863952637,1.8914192914962769,8.399158477783203
1657787294240785700,1.26178564453125,8.4015531539917,1.843535304069519,8.375216484069824
1657787294242786600,1.26378662109375,8.279448509216309,1.7717092037200928,8.279448509216309
1657787294244787500,1.265787353515625,8.140584945678711,1.7070658206939697,8.205228805541992
1657787294246788400,1.267788330078125,8.07115364074707,1.6759412288665771,8.186075210571289
1657787294248788000,1.2697880859375,7.925107002258301,1.5945383310317993,8.16213321685791
1657787294250788600,1.27178857421875,7.695263385772705,1.5203180313110352,8.056788444519043
1657787294252788500,1.27378857421875,7.556399822235107,1.4867992401123047,7.9945387840271
1657787294254789600,1.27578955078125,7.2667012214660645,1.4077905416488647,7.889194011688232
1657787294256789500,1.27778955078125,6.974608898162842,1.359906554222107,7.786243438720703
1657787294258789600,1.27978955078125,6.821380138397217,1.335964560508728,7.738358974456787
1657787294260788700,1.281788818359375,6.309020519256592,1.2665326595306396,7.635408401489258
1657787294262788900,1.283788818359375,6.124667167663574,1.2497732639312744,7.611466407775879
1657787294264788700,1.285788818359375,5.930737018585205,1.216254472732544,7.589918613433838
1657787294266788600,1.28778857421875,5.56442403793335,1.1444283723831177,7.585130214691162
1657787294268788700,1.289788818359375,5.241206645965576,1.0558429956436157,7.630620002746582
1657787294270788400,1.291788330078125,5.087977886199951,1.015141487121582,7.649773597717285
1657787294272788200,1.293788330078125,4.800374507904053,0.9576807022094727,7.71202278137207
1657787294274788400,1.295788330078125,4.565742492675781,0.9169792532920837,7.75751256942749
1657787294276788200,1.297788330078125,4.460397720336914,0.8906430602073669,7.764695167541504
1657787294278788000,1.2997880859375,4.271255970001221,0.8571242094039917,7.7742719650268555
1657787294280789000,1.3017890625,4.127603530883789,0.8068459630012512,7.8006086349487305
1657787294282790100,1.3037900390625,4.065354347229004,0.7781155705451965,7.803002834320068
1657787294284791000,1.305791015625,3.9480385780334473,0.730231523513794,7.817368030548096
1657787294286792000,1.3077919921875,3.8594532012939453,0.6847416758537292,7.814973831176758
1657787294288791800,1.309791748046875,3.825934410095215,0.667982280254364,7.836521625518799
1657787294290792700,1.311792724609375,3.77565598487854,0.6057330369949341,7.853281021118164
1657787294292793300,1.31379345703125,3.734954595565796,0.5674257874488831,7.862857818603516
1657787294294793200,1.315793212890625,3.7229835987091064,0.545877993106842,7.853281021118164
1657787294296793300,1.31779345703125,3.7014358043670654,0.48602294921875,7.850886821746826
1657787294298793200,1.319793212890625,3.6966474056243896,0.4668693244457245,7.826944828033447
1657787294300792600,1.32179248046875,3.711012601852417,0.4572925269603729,7.733570575714111
1657787294302791700,1.323791748046875,3.711012601852417,0.4572925269603729,7.733570575714111
1657787294304791800,1.325791748046875,3.7181951999664307,0.44532153010368347,7.714416980743408
1657787294306791700,1.327791748046875,3.7277719974517822,0.42856210470199585,7.656956195831299
1657787294308792000,1.3297919921875,3.713406801223755,0.40462008118629456,7.5994954109191895
1657787294310791400,1.33179150390625,3.706224203109741,0.3878606855869293,7.568370819091797
1657787294312791600,1.33379150390625,3.7038300037384033,0.3711012601852417,7.4893622398376465
1657787294314791400,1.33579150390625,3.7158010005950928,0.33279404044151306,7.424718856811523
1657787294316791300,1.337791259765625,3.7253777980804443,0.2992752194404602,7.376834869384766
1657787294318791400,1.33979150390625,3.737348794937134,0.27054479718208313,7.285854816436768
1657787294320792000,1.3417919921875,3.734954595565796,0.21547815203666687,7.144597053527832
1657787294322792200,1.343792236328125,3.7421371936798096,0.1604115068912506,7.0679826736450195
1657787294324792000,1.3457919921875,3.751713991165161,0.12449848651885986,6.9147539138793945
1657787294326792200,1.347792236328125,3.751713991165161,0.07900865375995636,6.737582683563232
1657787294328792000,1.3497919921875,3.7469255924224854,0.028730420395731926,6.651391506195068
1657787294330792200,1.351792236328125,3.756502389907837,-0.009576806798577309,6.467038154602051
1657787294332793300,1.35379345703125,3.737348794937134,-0.07422025501728058,6.22043514251709
1657787294334793200,1.355793212890625,3.734954595565796,-0.12449848651885986,6.112696170806885
1657787294336793300,1.35779345703125,3.7181951999664307,-0.16759411990642548,5.885247230529785
1657787294338793500,1.35979345703125,3.663128614425659,-0.24420857429504395,5.641038417816162
1657787294340792600,1.36179248046875,3.4955344200134277,-0.5099649429321289,4.8267107009887695
1657787294342791700,1.363791748046875,3.4955344200134277,-0.5099649429321289,4.8267107009887695
1657787294344790800,1.365790771484375,3.4955344200134277,-0.5099649429321289,4.8267107009887695
1657787294346790000,1.367789794921875,3.4620156288146973,-0.5434837937355042,4.709394931793213
1657787294348790000,1.3697900390625,3.4620156288146973,-0.5434837937355042,4.709394931793213
1657787294350790100,1.3717900390625,3.3949780464172363,-0.6416460275650024,4.5154643058776855
1657787294352790800,1.373790771484375,3.3303346633911133,-0.7326257228851318,4.426878929138184
1657787294354790700,1.375790771484375,3.3063924312591553,-0.7661445140838623,4.242525577545166
1657787294356790800,1.377790771484375,3.246537446975708,-0.8427590131759644,4.046200752258301
1657787294358790700,1.379790771484375,3.2130186557769775,-0.8906430602073669,3.9456443786621094
1657787294360791300,1.381791259765625,3.1268274784088135,-0.9696516990661621,3.756502389907837
1657787294362792200,1.383792236328125,3.023876667022705,-1.0582371950149536,3.5889084339141846
1657787294364792300,1.385792236328125,2.9664158821105957,-1.1037269830703735,3.5051112174987793
1657787294366792400,1.38779248046875,2.851494312286377,-1.1851298809051514,3.3518824577331543
1657787294368792300,1.389792236328125,2.7269957065582275,-1.2641384601593018,3.2178070545196533
1657787294370792400,1.39179248046875,2.6599581241607666,-1.3096283674240112,3.1531636714935303
1657787294372792600,1.39379248046875,2.5330653190612793,-1.3934253454208374,3.0406360626220703
1657787294374792400,1.39579248046875,2.3942017555236816,-1.4772224426269531,2.9448680877685547
1657787294376792600,1.39779248046875,2.3295583724975586,-1.522712230682373,2.892195701599121
1657787294378792400,1.39979248046875,2.207453966140747,-1.6041151285171509,2.786850690841675
1657787294380791600,1.40179150390625,1.4628572463989258,-1.9081788063049316,2.3798365592956543
1657787294382790700,1.403790771484375,1.4628572463989258,-1.9081788063049316,2.3798365592956543
1657787294384789800,1.405789794921875,1.3455413579940796,-1.9488801956176758,2.346317768096924
1657787294386788900,1.407788818359375,1.2234370708465576,-1.9943699836730957,2.3032219409942627
1657787294388788000,1.4097880859375,1.2234370708465576,-1.9943699836730957,2.3032219409942627
1657787294390787300,1.411787353515625,1.2234370708465576,-1.9943699836730957,2.3032219409942627
1657787294392785200,1.41378515625,1.1037269830703735,-2.0398597717285156,2.255337953567505
1657787294394785000,1.415784912109375,0.9816226959228516,-2.0853497982025146,2.212242364883423
1657787294396784600,1.41778466796875,0.7182605266571045,-2.1811177730560303,2.1475989818573
1657787294398796800,1.419796875,0.47644615173339844,-2.2601263523101807,2.1068975925445557
1657787294400796700,1.421796630859375,0.35913026332855225,-2.2912509441375732,2.099714994430542
1657787294402796800,1.423796875,0.1149216815829277,-2.3558945655822754,2.0901381969451904
1657787294404801000,1.425801025390625,-0.10773907601833344,-2.4157495498657227,2.0901381969451904
1657787294406808600,1.42780859375,-0.21308395266532898,-2.451662540435791,2.0805611610412598
1657787294408808700,1.42980859375,-0.4118026793003082,-2.542642116546631,2.0398597717285156
1657787294410806800,1.431806884765625,-0.608127236366272,-2.6168625354766846,1.9776105880737305
1657787294412808000,1.433807861328125,-0.7134721279144287,-2.6599581241607666,1.9369091987609863
1657787294414808000,1.43580810546875,-0.9002198576927185,-2.734178304672241,1.8483237028121948
1657787294416808200,1.43780810546875,-1.0749965906143188,-2.806004285812378,1.764526605606079
1657787294418808300,1.439808349609375,-1.1659762859344482,-2.8395233154296875,1.721431016921997
1657787294420806100,1.44180615234375,-1.8339585065841675,-3.1507694721221924,1.4437036514282227
1657787294422804000,1.443803955078125,-1.8339585065841675,-3.1507694721221924,1.4245500564575195
1657787294424801800,1.4458017578125,-1.889025092124939,-3.1890766620635986,1.4173674583435059
1657787294426799900,1.4477998046875,-1.941697597503662,-3.24414324760437,1.4197616577148438
1657787294428798700,1.449798828125,-1.941697597503662,-3.24414324760437,1.4197616577148438
1657787294430797000,1.451797119140625,-1.941697597503662,-3.24414324760437,1.4197616577148438
1657787294432797200,1.453797119140625,-1.9919757843017578,-3.287238836288452,1.4197616577148438
1657787294434797000,1.455797119140625,-2.0925323963165283,-3.3854012489318848,1.403002142906189
1657787294436797200,1.457797119140625,-2.1356279850006104,-3.4356794357299805,1.3982137441635132
1657787294438797300,1.45979736328125,-2.1811177730560303,-3.5170822143554688,1.414973258972168
1657787294440797200,1.461797119140625,-2.2361843585968018,-3.5865142345428467,1.4053963422775269
1657787294442813200,1.463813232421875,-2.2673089504241943,-3.6391866207122803,1.4077905416488647
1657787294444813300,1.465813232421875,-2.3343467712402344,-3.734954595565796,1.414973258972168
1657787294446813200,1.467813232421875,-2.3582887649536133,-3.8331170082092285,1.4437036514282227
1657787294448813300,1.469813232421875,-2.3750481605529785,-3.8714241981506348,1.45806884765625
1657787294450813200,1.471813232421875,-2.3989901542663574,-3.9456443786621094,1.4987702369689941
1657787294452814300,1.473814453125,-2.408566951751709,-4.046200752258301,1.5059528350830078
1657787294454814200,1.475814208984375,-2.406172752380371,-4.1156325340271,1.5179238319396973
1657787294456814000,1.47781396484375,-2.387019157409668,-4.235342979431152,1.5921441316604614
1657787294458814500,1.479814453125,-2.363077163696289,-4.364629745483398,1.6855180263519287
1657787294460812000,1.48181201171875,-2.3511061668395996,-4.474762916564941,1.7836803197860718
1657787294462812000,1.48381201171875,-2.3558945655822754,-4.522646903991699,1.8267759084701538
1657787294464811800,1.485811767578125,-2.3271639347076416,-4.630385875701904,1.9081788063049316
1657787294466813700,1.487813720703125,-2.3032219409942627,-4.69024133682251,1.9608511924743652
1657787294468813600,1.4898134765625,-2.22660756111145,-4.81473970413208,2.0685901641845703
1657787294470813400,1.4918134765625,-2.118868589401245,-4.968267917633057,2.164358377456665
1657787294472813300,1.493813232421875,-2.0470423698425293,-5.042488098144531,2.2194249629974365
1657787294474813400,1.4958134765625,-1.8914192914962769,-5.186140060424805,2.3319525718688965
1657787294476813300,1.497813232421875,-1.7693150043487549,-5.329792022705078,2.4612393379211426
1657787294478813200,1.499813232421875,-1.702277421951294,-5.396830081939697,2.537853717803955
1657787294480813000,1.50181298828125,-1.5897499322891235,-5.542876243591309,2.6575639247894287
1657787294482813200,1.503813232421875,-1.501164436340332,-5.708076000213623,2.8227639198303223
1657787294484813000,1.50581298828125,-1.45806884765625,-5.789478778839111,2.8993782997131348
1657787294486813200,1.507813232421875,-1.3766659498214722,-5.95946741104126,3.071760892868042
1657787294488813000,1.50981298828125,-1.314416766166687,-6.127061367034912,3.251325845718384
1657787294490813200,1.511813232421875,-1.2832920551300049,-6.2084641456604,3.35667085647583
1657787294492813000,1.51381298828125,-1.2090718746185303,-6.416759967803955,3.5697548389434814
1657787294494813200,1.515813232421875,-1.1324573755264282,-6.605901718139648,3.8091750144958496
1657787294496813300,1.517813232421875,-1.091755986213684,-6.704063892364502,3.9169139862060547
1657787294498813200,1.519813232421875,-0.993593692779541,-6.900388717651367,4.151545524597168
1657787294500812300,1.521812255859375,-0.8068459630012512,-7.324162483215332,4.568136692047119
1657787294502810400,1.523810302734375,-0.8068459630012512,-7.324162483215332,4.568136692047119
1657787294504810500,1.525810546875,-0.768538773059845,-7.429507255554199,4.6734819412231445
1657787294506811000,1.527810791015625,-0.6943184733390808,-7.644985198974609,4.862623691558838
1657787294508810800,1.529810791015625,-0.6368576288223267,-7.747935771942139,4.951508522033691
1657787294510810600,1.531810546875,-0.5171475410461426,-7.965808391571045,5.116708278656006
1657787294512810200,1.533810302734375,-0.3926490843296051,-8.169315338134766,5.250783443450928
1657787294514810000,1.53581005859375,-0.31603461503982544,-8.262689590454102,5.2986674308776855
1657787294516810200,1.537810302734375,-0.1843535304069519,-8.451830863952637,5.411195278167725
1657787294518810000,1.53981005859375,-0.07661445438861847,-8.636184692382812,5.55245304107666
1657787294520811000,1.54181103515625,-0.026336219161748886,-8.727164268493652,5.617096424102783
1657787294522811100,1.54381103515625,0.08140286058187485,-8.904335021972656,5.789478778839111
1657787294524811000,1.54581103515625,0.1604115068912506,-9.10066032409668,5.945102214813232
1657787294526810400,1.547810302734375,0.20111294090747833,-9.201216697692871,6.021716594696045
1657787294528810200,1.549810302734375,0.2753331959247589,-9.375992774963379,6.1629743576049805
1657787294530810400,1.551810302734375,0.33997663855552673,-9.56513500213623,6.325780391693115
1657787294532810200,1.553810302734375,0.3711012601852417,-9.665691375732422,6.414365768432617
1657787294534810600,1.555810546875,0.45489832758903503,-9.85962200164795,6.574777126312256
1657787294536810500,1.557810546875,0.5315127968788147,-10.07509994506836,6.747159481048584
1657787294538810600,1.559810546875,0.5650315880775452,-10.180444717407227,6.823774337768555
1657787294540809700,1.561809814453125,0.933738648891449,-10.913070678710938,7.2667012214660645
1657787294542808800,1.563808837890625,0.933738648891449,-10.913070678710938,7.2667012214660645
1657787294544808000,1.565807861328125,0.9816226959228516,-11.008838653564453,7.3361334800720215
1657787294546807000,1.56780712890625,0.9816226959228516,-11.008838653564453,7.3361334800720215
1657787294548807000,1.569806884765625,1.036689281463623,-11.099818229675293,7.407959461212158
1657787294550807000,1.57180712890625,1.0965443849563599,-11.186009407043457,7.482179641723633
1657787294552807000,1.573806884765625,1.1635819673538208,-11.375151634216309,7.654561996459961
1657787294554806800,1.575806884765625,1.2210428714752197,-11.583447456359863,7.8221564292907715
1657787294556806700,1.577806640625,1.2401964664459229,-11.693580627441406,7.915530204772949
1657787294558806800,1.579806884765625,1.2976573705673218,-11.911452293395996,8.138191223144531
1657787294560807700,1.5818076171875,1.3479355573654175,-12.162843704223633,8.37761116027832
1657787294562808300,1.583808349609375,1.3670891523361206,-12.280159950256348,8.475772857666016
1657787294564808400,1.585808349609375,1.3934253454208374,-12.56985855102539,8.672098159790039
1657787294566808000,1.58780810546875,1.414973258972168,-12.895469665527344,8.892364501953125
1657787294568808000,1.589807861328125,1.4317326545715332,-13.046304702758789,8.98813247680664
1657787294570808000,1.59180810546875,1.4652514457702637,-13.336002349853516,9.19163990020752
1657787294572808400,1.593808349609375,1.5155296325683594,-13.63527774810791,9.366415977478027
1657787294574808600,1.59580859375,1.5394717454910278,-13.774141311645508,9.459790229797363
1657787294576808400,1.597808349609375,1.6112977266311646,-14.032715797424316,9.668086051940918
1657787294578808000,1.59980810546875,1.6711528301239014,-14.30325984954834,9.888352394104004
1657787294580807200,1.60180712890625,1.889025092124939,-15.426440238952637,10.927435874938965
1657787294582806300,1.60380615234375,1.9057846069335938,-15.59164047241211,11.073482513427734
1657787294584805400,1.605805419921875,1.9105730056762695,-15.756839752197266,11.229104995727539
1657787294586804500,1.607804443359375,1.9105730056762695,-15.756839752197266,11.229104995727539
1657787294588803600,1.609803466796875,1.9105730056762695,-15.756839752197266,11.229104995727539
1657787294590802700,1.611802734375,1.9177556037902832,-15.914856910705566,11.372756958007812
1657787294592802800,1.613802734375,1.9177556037902832,-15.914856910705566,11.372756958007812
1657787294594802700,1.615802734375,1.9512743949890137,-16.247652053833008,11.652878761291504
1657787294596802300,1.61780224609375,1.9728221893310547,-16.597204208374023,11.978490829467773
1657787294598814500,1.619814453125,1.9823989868164062,-16.788740158081055,12.14129638671875
1657787294600814300,1.621814453125,2.008735179901123,-17.18378448486328,12.430994033813477
1657787294602814500,1.623814453125,2.013523578643799,-17.554885864257812,12.725481033325195
1657787294604814300,1.625814453125,2.0231003761291504,-17.736845016479492,12.861950874328613
1657787294606814500,1.627814453125,2.0805611610412598,-18.09358024597168,13.173196792602539
1657787294608811800,1.629811767578125,2.1140801906585693,-18.45989418029785,13.489232063293457
1657787294610811600,1.631811767578125,2.1284453868865967,-18.64664077758789,13.664008140563965
1657787294612811500,1.6338115234375,2.1499931812286377,-19.017742156982422,13.956101417541504
1657787294614811400,1.635811279296875,2.169146776199341,-19.376873016357422,14.257770538330078
1657787294616811300,1.637811279296875,2.188300371170044,-19.570802688598633,14.408605575561523
1657787294618811100,1.63981103515625,2.2385785579681396,-19.941904067993164,14.671967506408691
1657787294620808700,1.64180859375,2.6862943172454834,-21.100698471069336,15.397709846496582
1657787294622806500,1.643806640625,2.782062292098999,-21.18928337097168,15.44559383392334
1657787294624804400,1.645804443359375,2.896984100341797,-21.24674415588379,15.474324226379395
1657787294626802700,1.647802734375,2.896984100341797,-21.24674415588379,15.474324226379395
1657787294628801500,1.649801513671875,2.896984100341797,-21.24674415588379,15.474324226379395
1657787294630801700,1.6518017578125,3.0142998695373535,-21.282657623291016,15.488689422607422
1657787294632801500,1.653801513671875,3.134010076522827,-21.306598663330078,15.498266220092773
1657787294634801700,1.6558017578125,3.270479440689087,-21.30181121826172,15.488689422607422
1657787294636801500,1.657801513671875,3.557783842086792,-21.227590560913086,15.438410758972168
1657787294638779600,1.659779541015625,3.8762125968933105,-21.0695743560791,15.407286643981934
1657787294640802600,1.661802490234375,4.036623954772949,-20.978593826293945,15.3546142578125
1657787294642814000,1.66381396484375,4.364629745483398,-20.739173889160156,15.301941871643066
1657787294644817700,1.665817626953125,4.6734819412231445,-20.475811004638672,15.273211479187012
1657787294646823400,1.667823486328125,4.829104900360107,-20.334552764892578,15.285181999206543
1657787294648828200,1.669828125,5.128679275512695,-20.02570152282715,15.32109546661377
1657787294650832000,1.671831787109375,5.4135894775390625,-19.7192440032959,15.383344650268555
1657787294652835000,1.6738349609375,5.557241439819336,-19.54686164855957,15.428833961486816
1657787294654838000,1.675838134765625,5.837363243103027,-19.19012451171875,15.572486877441406
1657787294656840400,1.67784033203125,6.148609161376953,-18.866907119750977,15.792753219604492
1657787294658842600,1.679842529296875,6.289866924285889,-18.69213104248047,15.922039985656738
1657787294660842500,1.681842529296875,6.718429088592529,-18.179771423339844,16.415245056152344
1657787294662842000,1.683842041015625,6.859687328338623,-18.019359588623047,16.616357803344727
1657787294664843800,1.68584375,6.996156692504883,-17.861343383789062,16.8222599029541
1657787294666845200,1.68784521484375,7.22599983215332,-17.55009651184082,17.2364559173584
1657787294668846800,1.689846923828125,7.448660850524902,-17.18378448486328,17.61713409423828
1657787294670847700,1.69184765625,7.556399822235107,-17.00421905517578,17.79669952392578
1657787294672849200,1.69384912109375,7.779060363769531,-16.63072395324707,18.14864730834961
1657787294674850300,1.695850341796875,7.972990989685059,-16.233285903930664,18.486228942871094
1657787294676851500,1.6978515625,8.059182167053223,-16.02738380432129,18.651430130004883
1657787294678852600,1.6998525390625,8.226776123046875,-15.596428871154785,18.967464447021484
1657787294680853800,1.701853759765625,8.384793281555176,-15.146318435668945,19.273921966552734
1657787294682854700,1.703854736328125,8.451830863952637,-14.928445816040039,19.42954444885254
1657787294684855600,1.70585546875,8.585906982421875,-14.506767272949219,19.755157470703125
1657787294686856700,1.707856689453125,8.667309761047363,-14.111723899841309,20.059221267700195
1657787294688857600,1.709857666015625,8.70561695098877,-13.915399551391602,20.21245002746582
1657787294690858500,1.7118583984375,8.770259857177734,-13.527539253234863,20.487783432006836
1657787294692859100,1.713859130859375,8.818143844604492,-13.127707481384277,20.753538131713867
1657787294694859500,1.715859619140625,8.83250904083252,-12.943353652954102,20.88761329650879
1657787294696860400,1.7178603515625,8.83011531829834,-12.557887077331543,21.165342330932617
1657787294698861300,1.719861328125,8.779836654663086,-12.160449981689453,21.43349266052246
1657787294700860400,1.7218603515625,8.674491882324219,-11.552322387695312,21.821352005004883
1657787294702859500,1.723859619140625,8.626607894897461,-11.355998039245605,21.941062927246094
1657787294704859600,1.725859619140625,8.566753387451172,-11.145308494567871,22.04640769958496
1657787294706859800,1.72785986328125,8.506897926330566,-10.941801071166992,22.134992599487305
1657787294708859600,1.729859619140625,8.360851287841797,-10.541969299316406,22.2954044342041
1657787294710859500,1.731859619140625,8.210017204284668,-10.173262596130371,22.415115356445312
1657787294712859400,1.733859375,8.123826026916504,-9.998485565185547,22.45342254638672
1657787294714859500,1.735859619140625,7.934683799743652,-9.663297653198242,22.50848960876465
1657787294716859400,1.737859375,7.719205379486084,-9.313743591308594,22.52764320373535
1657787294718859500,1.739859619140625,7.5994954109191895,-9.141361236572266,22.52764320373535
1657787294720860400,1.7418603515625,7.324162483215332,-8.79659652709961,22.50848960876465
1657787294722861300,1.743861328125,7.0679826736450195,-8.451830863952637,22.498912811279297
1657787294724861400,1.745861328125,6.929119110107422,-8.284236907958984,22.496517181396484
1657787294726861300,1.747861328125,6.632237911224365,-7.94904899597168,22.484546661376953
1657787294728861000,1.74986083984375,6.309020519256592,-7.66653299331665,22.484546661376953
1657787294730861600,1.751861572265625,6.148609161376953,-7.539640426635742,22.470182418823242
1657787294732861400,1.753861328125,5.8349690437316895,-7.3145856857299805,22.388778686523438
1657787294734861600,1.755861572265625,5.471050262451172,-7.139808654785156,22.22597312927246
1657787294736861400,1.757861328125,5.291484832763672,-7.058405876159668,22.10626220703125
1657787294738861600,1.759861572265625,4.9275665283203125,-6.9147539138793945,21.79022789001465
1657787294740860700,1.761860595703125,3.6391866207122803,-6.586748123168945,20.164566040039062
1657787294742859800,1.76385986328125,3.6391866207122803,-6.586748123168945,20.164566040039062
1657787294744859000,1.76585888671875,3.6391866207122803,-6.586748123168945,20.164566040039062
1657787294746858000,1.76785791015625,3.4811692237854004,-6.555623531341553,19.84613609313965
1657787294748858000,1.769858154296875,3.4811692237854004,-6.555623531341553,19.84613609313965
1657787294750858000,1.77185791015625,3.1890766620635986,-6.464643955230713,19.12308692932129
1657787294752858000,1.773858154296875,2.8107926845550537,-6.447884559631348,18.34018325805664
1657787294754858500,1.7758583984375,2.604891538619995,-6.471826553344727,17.942745208740234
1657787294756858400,1.7778583984375,2.183511972427368,-6.565200328826904,17.18378448486328
1657787294758858500,1.7798583984375,1.7764976024627686,-6.711246490478516,16.8031063079834
1657787294760859100,1.781859130859375,1.5849615335464478,-6.771101474761963,16.03217315673828
1657787294762860300,1.7838603515625,1.2425906658172607,-6.883629322052002,15.287576675415039
1657787294764860200,1.785860107421875,0.8882488012313843,-6.96503210067749,14.906898498535156
1657787294766860300,1.7878603515625,0.7182605266571045,-7.008127689361572,14.173973083496094
1657787294768860200,1.789860107421875,0.38546648621559143,-7.084742069244385,13.405434608459473
1657787294770860300,1.7918603515625,0.026336219161748886,-7.137414455413818,13.027151107788086
1657787294772860400,1.7938603515625,-0.14604631066322327,-7.161356449127197,12.270583152770996
1657787294774860300,1.7958603515625,-0.45489832758903503,-7.202057838439941,11.554717063903809
1657787294776860400,1.7978603515625,-0.7805097699165344,-7.228394031524658,11.219528198242188
1657787294778860300,1.7998603515625,-0.933738648891449,-7.240365028381348,10.587459564208984
1657787294780859400,1.801859375,-1.5634137392044067,-7.482179641723633,8.722375869750977
1657787294782858500,1.8038583984375,-1.5634137392044067,-7.482179641723633,8.722375869750977
1657787294784857600,1.805857666015625,-1.5658079385757446,-7.46302604675293,8.578723907470703
1657787294786856700,1.807856689453125,-1.5610195398330688,-7.412747859954834,8.43507194519043
1657787294788856000,1.80985595703125,-1.5610195398330688,-7.412747859954834,8.43507194519043
1657787294790855000,1.81185498046875,-1.5610195398330688,-7.412747859954834,8.43507194519043
1657787294792854800,1.813854736328125,-1.5610195398330688,-7.3576812744140625,8.298602104187012
1657787294794855000,1.81585498046875,-1.5634137392044067,-7.19248104095459,8.169315338134766
1657787294796854800,1.817854736328125,-1.558625340461731,-7.082347869873047,7.910741806030273
1657787294798855000,1.81985498046875,-1.599326729774475,-6.838139533996582,7.63301420211792
1657787294800845800,1.821845703125,-1.7166426181793213,-6.565200328826904,7.386411666870117
1657787294802846000,1.823845947265625,-1.7741034030914307,-6.44549036026001,7.28346061706543
1657787294804845800,1.825845703125,-1.8626888990402222,-6.218040943145752,7.118260860443115
1657787294806846000,1.827845947265625,-1.8722656965255737,-6.043264389038086,7.070376873016357
1657787294808845800,1.829845703125,-1.8411411046981812,-5.954679012298584,7.020098686218262
1657787294810846000,1.831845947265625,-1.7573440074920654,-5.758354187011719,7.065588474273682
1657787294812845800,1.833845703125,-1.7070658206939697,-5.633855819702148,7.130231857299805
1657787294814846200,1.83584619140625,-1.6112977266311646,-5.559635639190674,7.230788230895996
1657787294816846000,1.83784619140625,-1.4939818382263184,-5.425560474395752,7.187692642211914
1657787294818846000,1.839845947265625,-1.45806884765625,-5.363311290740967,7.137414455413818
1657787294820843500,1.841843505859375,-0.6655880808830261,-5.004180908203125,6.91954231262207
1657787294822841300,1.84384130859375,-0.6655880808830261,-5.004180908203125,6.900388717651367
1657787294824839200,1.845839111328125,-0.6057330369949341,-4.963479518890381,6.87405252456665
1657787294826837200,1.847837158203125,-0.5650315880775452,-4.9275665283203125,6.84053373336792
1657787294828835300,1.84983544921875,-0.5650315880775452,-4.9275665283203125,6.84053373336792
1657787294830834400,1.85183447265625,-0.5650315880775452,-4.9275665283203125,6.84053373336792
1657787294832834300,1.853834228515625,-0.5267243981361389,-4.910807132720947,6.804620742797852
1657787294834834400,1.85583447265625,-0.4620809257030487,-4.879383087158203,6.73997688293457
1657787294836834300,1.857834228515625,-0.4213795065879822,-4.874594688415527,6.725611686706543
1657787294838823200,1.8598232421875,-0.2992752194404602,-4.8602294921875,6.720823287963867
1657787294840834300,1.861834228515625,-0.11013327538967133,-4.879383087158203,6.754342079162598
1657787294842840300,1.86384033203125,0.0071826050989329815,-4.879383087158203,6.7806782722473145
1657787294844844300,1.86584423828125,0.24899697303771973,-4.908412933349609,6.852504730224609
1657787294846847200,1.86784716796875,0.4644751250743866,-4.898836135864258,6.938695907592773
1657787294848849700,1.869849609375,0.5674257874488831,-4.910807132720947,7.0033392906188965
1657787294850852600,1.8718525390625,0.7972691655158997,-4.989815711975098,7.1781158447265625
1657787294852854300,1.873854248046875,0.9983820915222168,-5.073612689971924,7.398382663726807
1657787294854855700,1.875855712890625,1.0893617868423462,-5.1023430824279785,7.494150638580322
1657787294856857000,1.877857177734375,1.2545616626739502,-5.133467674255371,7.697657585144043
1657787294858858200,1.879858154296875,1.403002142906189,-5.128679275512695,7.867646217346191
1657787294860856800,1.88185693359375,1.522712230682373,-5.06643009185791,8.004115104675293
1657787294862857700,1.883857666015625,1.5753847360610962,-5.044882297515869,8.059182167053223
1657787294864858600,1.885858642578125,1.6376339197158813,-4.973056316375732,8.157344818115234
1657787294866859300,1.887859375,1.659181833267212,-4.937143325805664,8.188468933105469
1657787294868860200,1.889860107421875,1.6879122257232666,-4.874594688415527,8.274660110473633
1657787294870861800,1.89186181640625,1.745373010635376,-4.824316501617432,8.370428085327148
1657787294872862500,1.893862548828125,1.766920804977417,-4.795586109161377,8.4015531539917
1657787294874863000,1.895863037109375,1.800439715385437,-4.738125324249268,8.490138053894043
1657787294876863700,1.89786376953125,1.8076223134994507,-4.69024133682251,8.576330184936523
1657787294878864100,1.899864013671875,1.8148049116134644,-4.671087741851807,8.61463737487793
1657787294880864800,1.90186474609375,1.8483237028121948,-4.611232280731201,8.679280281066895
1657787294882865400,1.903865478515625,1.8818424940109253,-4.527435302734375,8.77504825592041
1657787294884865800,1.90586572265625,1.8986018896102905,-4.51067590713501,8.83011531829834
1657787294886866400,1.907866455078125,1.9967641830444336,-4.491522312164307,8.959402084350586
1657787294888866800,1.90986669921875,2.1140801906585693,-4.46518611907959,9.112630844116211
1657787294890867200,1.9118671875,2.164358377456665,-4.458003520965576,9.184456825256348
1657787294892867600,1.91386767578125,2.3104045391082764,-4.431667327880859,9.325715065002441
1657787294894868000,1.915867919921875,2.4444799423217773,-4.371812343597412,9.450213432312012
1657787294896868400,1.917868408203125,2.5067291259765625,-4.333505153656006,9.514857292175293
1657787294898868700,1.91986865234375,2.6623523235321045,-4.292803764343262,9.632172584533691
1657787294900867800,1.921867919921875,2.9065608978271484,-4.194641590118408,9.885957717895508
1657787294902867200,1.9238671875,2.9065608978271484,-4.194641590118408,9.885957717895508
1657787294904867000,1.9258671875,2.964021682739258,-4.182670593261719,9.92665958404541
1657787294906866700,1.92786669921875,3.047818660736084,-4.199429988861084,9.998485565185547
1657787294908866800,1.92986669921875,3.098097085952759,-4.211400985717773,10.010457038879395
1657787294910866400,1.931866455078125,3.1483752727508545,-4.2544965744018555,10.0487642288208
1657787294912866600,1.933866455078125,3.1675288677215576,-4.311957359313965,10.053552627563477
1657787294914866400,1.935866455078125,3.177105665206909,-4.338293552398682,10.036792755126953
1657787294916866300,1.9378662109375,3.1747114658355713,-4.395754337310791,10.008062362670898
1657787294918866400,1.939866455078125,3.136404275894165,-4.434061527252197,9.981725692749023
1657787294920867600,1.94186767578125,3.1052796840667725,-4.434061527252197,9.964966773986816
1657787294922867500,1.943867431640625,3.0526070594787598,-4.424484729766846,9.931447982788086
1657787294924867600,1.94586767578125,2.999934673309326,-4.383783340454102,9.919476509094238
1657787294926867700,1.94786767578125,2.964021682739258,-4.369418144226074,9.914688110351562
1657787294928867600,1.94986767578125,2.8778305053710938,-4.3406877517700195,9.92665958404541
1657787294930867200,1.9518671875,2.7988216876983643,-4.307168960571289,9.945813179016113
1657787294932867000,1.9538671875,2.7533318996429443,-4.290409564971924,9.950601577758789
1657787294934867200,1.9558671875,2.669534921646118,-4.28322696685791,9.993697166442871
1657787294936867000,1.9578671875,2.5761611461639404,-4.264073371887207,10.036792755126953
1657787294938867200,1.9598671875,2.513911724090576,-4.256890773773193,10.065523147583008
1657787294940866300,1.9618662109375,2.0207061767578125,-4.228160381317139,10.242693901062012
1657787294942865400,1.963865478515625,1.9536685943603516,-4.228160381317139,10.249876976013184
1657787294944864500,1.965864501953125,1.9536685943603516,-4.228160381317139,10.249876976013184
1657787294946863600,1.967863525390625,1.9536685943603516,-4.228160381317139,10.249876976013184
1657787294948864800,1.96986474609375,1.889025092124939,-4.223371982574463,10.247482299804688
1657787294950864600,1.97186474609375,1.8363527059555054,-4.230554580688477,10.240300178527832
1657787294952864800,1.97386474609375,1.764526605606079,-4.252102375030518,10.16368579864502
1657787294954864600,1.97586474609375,1.721431016921997,-4.280832767486572,10.084676742553711
1657787294956864800,1.97786474609375,1.7070658206939697,-4.304774761199951,10.027215957641602
1657787294958865000,1.979864990234375,1.6950948238372803,-4.321534156799316,9.919476509094238
1657787294960865800,1.98186572265625,1.656787633895874,-4.333505153656006,9.794978141784668
1657787294962866400,1.983866455078125,1.6352397203445435,-4.331110954284668,9.725546836853027
1657787294964866600,1.985866455078125,1.556231141090393,-4.307168960571289,9.577106475830078
1657787294966867000,1.987866943359375,1.4700398445129395,-4.247313976287842,9.452607154846191
1657787294968866800,1.98986669921875,1.4221558570861816,-4.225766181945801,9.38556957244873
1657787294970867000,1.991866943359375,1.338358759880066,-4.173093795776367,9.273042678833008
1657787294972866800,1.99386669921875,1.2832920551300049,-4.10366153717041,9.177274703979492
1657787294974867000,1.995866943359375,1.2689268589019775,-4.0749311447143555,9.131784439086914
1657787294976866800,1.99786669921875,1.256955862045288,-4.031835556030273,9.047987937927246
1657787294978867000,1.999866943359375,1.259350061416626,-3.974374771118164,8.98813247680664
1657787294980865800,2.00186572265625,1.414973258972168,-3.708618402481079,8.83011531829834
1657787294982865000,2.003864990234375,1.4460978507995605,-3.687070608139038,8.810961723327637
1657787294984864000,2.005864013671875,1.479616641998291,-3.663128614425659,8.791808128356934
1657787294986863000,2.007863037109375,1.479616641998291,-3.663128614425659,8.791808128356934
1657787294988862200,2.0098623046875,1.479616641998291,-3.663128614425659,8.791808128356934
1657787294990861300,2.011861328125,1.5155296325683594,-3.646369218826294,8.770259857177734
1657787294992861400,2.013861328125,1.5155296325683594,-3.646369218826294,8.770259857177734
1657787294994861300,2.015861328125,1.6112977266311646,-3.6296098232269287,8.734347343444824
1657787294996861200,2.017861083984375,1.7334020137786865,-3.600879430770874,8.710405349731445
1657787294998861300,2.019861328125,1.800439715385437,-3.5913026332855225,8.710405349731445
1657787295000862200,2.0218623046875,1.968033790588379,-3.5170822143554688,8.722375869750977
1657787295002862800,2.02386279296875,2.164358377456665,-3.4356794357299805,8.727164268493652
1657787295004861200,2.025861083984375,2.2649147510528564,-3.4141316413879395,8.727164268493652
1657787295006861300,2.027861328125,2.473210334777832,-3.3638534545898438,8.712799072265625
1657787295008861700,2.02986181640625,2.655169725418091,-3.294421434402466,8.722375869750977
1657787295010861800,2.03186181640625,2.75812029838562,-3.270479440689087,8.74152946472168
1657787295012864300,2.0338642578125,2.940079689025879,-3.248931646347046,8.751106262207031
1657787295014864400,2.035864501953125,3.1244332790374756,-3.2561142444610596,8.748712539672852
1657787295016864300,2.0378642578125,3.2082302570343018,-3.2561142444610596,8.748712539672852
1657787295018864400,2.039864501953125,3.3734302520751953,-3.2537200450897217,8.77265453338623
1657787295020862200,2.0418623046875,3.799597978591919,-3.4524388313293457,8.724770545959473
1657787295022860000,2.043860107421875,3.821146011352539,-3.4835634231567383,8.70561695098877
1657787295024858000,2.045858154296875,3.8307228088378906,-3.5218706130981445,8.679280281066895
1657787295026857000,2.04785693359375,3.8307228088378906,-3.5218706130981445,8.679280281066895
1657787295028855000,2.04985498046875,3.840299606323242,-3.56017804145813,8.679280281066895
1657787295030853400,2.051853271484375,3.840299606323242,-3.56017804145813,8.652944564819336
1657787295032853500,2.053853515625,3.8522706031799316,-3.581725835800171,8.621819496154785
1657787295034853600,2.055853515625,3.845088005065918,-3.60566782951355,8.588300704956055
1657787295036853800,2.057853759765625,3.8163576126098633,-3.6846764087677,8.50210952758789
1657787295038853600,2.059853515625,3.780444383621216,-3.7708675861358643,8.396764755249023
1657787295040853800,2.061853759765625,3.7469255924224854,-3.8139634132385254,8.336909294128418
1657787295042853600,2.063853515625,3.6774938106536865,-3.9001545906066895,8.217199325561523
1657787295044853800,2.065853759765625,3.579331636428833,-3.9863457679748535,8.092700958251953
1657787295046853400,2.067853271484375,3.5242648124694824,-4.019864559173584,8.04002857208252
1657787295048853200,2.069853271484375,3.4117374420166016,-4.0964789390563965,7.951443195343018
1657787295050853000,2.07185302734375,3.308786630630493,-4.153939723968506,7.874828815460205
1657787295052853000,2.07385302734375,3.2609026432037354,-4.173093795776367,7.8437042236328125
1657787295054852900,2.075852783203125,3.1483752727508545,-4.206612586975098,7.817368030548096
1657787295056852700,2.077852783203125,3.0813376903533936,-4.23773717880249,7.783848762512207
1657787295058852600,2.0798525390625,3.047818660736084,-4.24970817565918,7.783848762512207
1657787295060850200,2.08185009765625,2.940079689025879,-4.309563159942627,7.764695167541504
1657787295062850000,2.08385009765625,2.9017724990844727,-4.32871675491333,7.786243438720703
1657787295064850000,2.085849853515625,2.8634653091430664,-4.338293552398682,7.81257963180542
1657787295066849800,2.087849853515625,2.7772738933563232,-4.345476150512695,7.850886821746826
1657787295068849700,2.089849609375,2.7006595134735107,-4.388571739196777,7.913136005401611
1657787295070850000,2.09185009765625,2.6671407222747803,-4.4077253341674805,7.94904899597168
1657787295072850200,2.09385009765625,2.604891538619995,-4.462791919708252,8.047211647033691
1657787295074850000,2.09585009765625,2.542642116546631,-4.520252704620361,8.116642951965332
1657787295076850000,2.097849853515625,2.52109432220459,-4.558559894561768,8.154950141906738
1657787295078850000,2.09985009765625,2.497152328491211,-4.6040496826171875,8.21959400177002
1657787295080850000,2.101849853515625,2.4588451385498047,-4.651933670043945,8.265083312988281
1657787295082850000,2.10385009765625,2.4468741416931152,-4.675876140594482,8.312967300415039
1657787295084849400,2.105849365234375,2.4420857429504395,-4.726154327392578,8.43746566772461
1657787295086849500,2.107849609375,2.4660277366638184,-4.757278919219971,8.569147109985352
1657787295088849400,2.109849365234375,2.47560453414917,-4.788403511047363,8.643367767333984
1657787295090849500,2.111849609375,2.5234885215759277,-4.869806289672852,8.810961723327637
1657787295092849400,2.113849365234375,2.5665841102600098,-4.9491143226623535,8.995314598083496
1657787295094849500,2.115849609375,2.5953147411346436,-5.004180908203125,9.091083526611328
1657787295096849400,2.117849365234375,2.669534921646118,-5.107131481170654,9.29458999633789
1657787295098849300,2.119849365234375,2.765302896499634,-5.2340240478515625,9.500492095947266
1657787295100848400,2.121848388671875,2.913743495941162,-5.423166275024414,9.847650527954102
1657787295102847700,2.12384765625,2.9759926795959473,-5.5021748542785645,9.96017837524414
1657787295104847600,2.12584765625,3.0382418632507324,-5.595548629760742,10.07270622253418
1657787295106847500,2.127847412109375,3.098097085952759,-5.684134006500244,10.194809913635254
1657787295108847600,2.12984765625,3.201047658920288,-5.858911037445068,10.405499458312988
1657787295110847500,2.131847412109375,3.339911460876465,-6.016928195953369,10.62816047668457
1657787295112847600,2.13384765625,3.40216064453125,-6.103119373321533,10.738293647766113
1657787295114847500,2.135847412109375,3.5194764137268066,-6.256348133087158,10.96813678741455
1657787295116847600,2.13784765625,3.6583402156829834,-6.40000057220459,11.13573169708252
1657787295118847500,2.139847412109375,3.7158010005950928,-6.493374347686768,11.229104995727539
1657787295120849000,2.141848876953125,3.8139634132385254,-6.723217487335205,11.439794540405273
1657787295122849000,2.14384912109375,3.9480385780334473,-6.943484306335449,11.616966247558594
1657787295124848600,2.1458486328125,4.005499362945557,-7.053617477416992,11.700762748718262
1657787295126848500,2.1478486328125,4.127603530883789,-7.259518623352051,11.853991508483887
1657787295128848600,2.1498486328125,4.268861770629883,-7.4678144454956055,11.980884552001953
1657787295130848300,2.15184814453125,4.335899353027344,-7.563582420349121,12.05031681060791
1657787295132848400,2.153848388671875,4.484339714050293,-7.695263385772705,12.17481517791748
1657787295134848300,2.15584814453125,4.67827033996582,-7.838915824890137,12.30170726776123
1657787295136848400,2.157848388671875,4.776432514190674,-7.922712802886963,12.375927925109863
1657787295138848300,2.15984814453125,4.968267917633057,-8.056788444519043,12.512397766113281
1657787295140847400,2.161847412109375,5.504569053649902,-8.50210952758789,12.838008880615234
1657787295142846500,2.163846435546875,5.504569053649902,-8.50210952758789,12.838008880615234
1657787295144846000,2.16584619140625,5.504569053649902,-8.50210952758789,12.838008880615234
1657787295146845200,2.16784521484375,5.571606636047363,-8.571541786193848,12.881104469299316
1657787295148845000,2.169844970703125,5.571606636047363,-8.571541786193848,12.881104469299316
1657787295150844700,2.1718447265625,5.712864398956299,-8.68406867980957,12.952930450439453
1657787295152844500,2.173844482421875,5.870882034301758,-8.798990249633789,13.029544830322266
1657787295154844700,2.1758447265625,5.949890613555908,-8.858845710754395,13.05588150024414
1657787295156844800,2.1778447265625,6.093542575836182,-8.980949401855469,13.09179401397705
1657787295158844700,2.1798447265625,6.251559734344482,-9.069535255432129,13.130101203918457
1657787295160845300,2.18184521484375,6.349722385406494,-9.107842445373535,13.14925479888916
1657787295162846200,2.18384619140625,6.553229331970215,-9.158121109008789,13.199533462524414
1657787295164846300,2.185846435546875,6.771101474761963,-9.198822021484375,13.228263854980469
1657787295166846200,2.18784619140625,6.890811920166016,-9.210793495178223,13.254599571228027
1657787295168846300,2.189846435546875,7.1350202560424805,-9.182063102722168,13.302483558654785
1657787295170846000,2.191845947265625,7.374440670013428,-9.141361236572266,13.36473274230957
1657787295172845800,2.193845703125,7.472602844238281,-9.119813919067383,13.400646209716797
1657787295174846000,2.195845947265625,7.692869186401367,-9.093477249145508,13.484443664550781
1657787295176845800,2.197845703125,7.889194011688232,-9.083900451660156,13.616124153137207
1657787295178846000,2.199845947265625,7.989750385284424,-9.069535255432129,13.69273853302002
1657787295180844500,2.201844482421875,8.348880767822266,-9.047987937927246,14.329596519470215
1657787295182843600,2.20384375,8.351274490356445,-9.057564735412598,14.42536449432373
1657787295184843300,2.20584326171875,8.351274490356445,-9.057564735412598,14.42536449432373
1657787295186842400,2.20784228515625,8.351274490356445,-9.057564735412598,14.42536449432373
1657787295188842000,2.209842041015625,8.351274490356445,-9.057564735412598,14.42536449432373
1657787295190842400,2.21184228515625,8.327332496643066,-9.112630844116211,14.64084243774414
1657787295192842200,2.21384228515625,8.265083312988281,-9.20361042022705,14.851831436157227
1657787295194842000,2.215842041015625,8.188468933105469,-9.344868659973145,15.093646049499512
1657787295196842800,2.2178427734375,8.138191223144531,-9.421483039855957,15.203779220581055
1657787295198842600,2.219842529296875,8.030451774597168,-9.567529678344727,15.392921447753906
1657787295200843500,2.221843505859375,7.910741806030273,-9.68005657196045,15.558120727539062
1657787295202844400,2.223844482421875,7.829339027404785,-9.751882553100586,15.637129783630371
1657787295204845300,2.22584521484375,7.644985198974609,-9.921871185302734,15.773599624633789
1657787295206846200,2.22784619140625,7.458237648010254,-10.099041938781738,15.871761322021484
1657787295208846300,2.229846435546875,7.362469673156738,-10.17565631866455,15.922039985656738
1657787295210847000,2.231846923828125,7.144597053527832,-10.388740539550781,16.017807006835938
1657787295212847000,2.23384716796875,6.924330711364746,-10.587459564208984,16.051326751708984
1657787295214847000,2.235846923828125,6.809409141540527,-10.68562126159668,16.060903549194336
1657787295216847000,2.23784716796875,6.5819597244262695,-10.869975090026855,16.060903549194336
1657787295218847000,2.239846923828125,6.359299182891846,-11.063905715942383,16.013019561767578
1657787295220846300,2.241846435546875,5.873276233673096,-11.619359970092773,15.529390335083008
1657787295222845400,2.243845458984375,5.873276233673096,-11.626543045043945,15.431228637695312
1657787295224844500,2.245844482421875,5.873276233673096,-11.626543045043945,15.431228637695312
1657787295226843600,2.24784375,5.8996124267578125,-11.626543045043945,15.316307067871094
1657787295228843300,2.24984326171875,5.8996124267578125,-11.626543045043945,15.316307067871094
1657787295230843000,2.2518427734375,5.8996124267578125,-11.626543045043945,15.316307067871094
1657787295232842800,2.2538427734375,5.928342819213867,-11.62175464630127,15.201385498046875
1657787295234842400,2.25584228515625,6.0097455978393555,-11.59781265258789,14.981118202209473
1657787295236842500,2.257842529296875,6.119878768920898,-11.571475982666016,14.887744903564453
1657787295238830300,2.259830322265625,6.1845221519470215,-11.561899185180664,14.724939346313477
1657787295240842500,2.261842529296875,6.313809394836426,-11.561899185180664,14.559439659118652
1657787295242848500,2.2638486328125,6.44549036026001,-11.585841178894043,14.494796752929688
1657787295244852500,2.2658525390625,6.514922142028809,-11.602601051330566,14.389451026916504
1657787295246855400,2.26785546875,6.6489973068237305,-11.650485038757324,14.324808120727539
1657787295248857900,2.26985791015625,6.799831867218018,-11.72470474243164,14.293683052062988
1657787295250859800,2.27185986328125,6.881235122680664,-11.753435134887695,14.260164260864258
1657787295252861200,2.273861083984375,7.029675483703613,-11.801319122314453,14.231433868408203
1657787295254862300,2.2758623046875,7.218817234039307,-11.851597785949707,14.224251747131348
1657787295256863500,2.277863525390625,7.328950881958008,-11.87075138092041,14.20988655090332
1657787295258864600,2.27986474609375,7.546823024749756,-11.909058570861816,14.207491874694824
1657787295260863200,2.28186328125,7.7742719650268555,-11.918635368347168,14.17876148223877
1657787295262864100,2.283864013671875,7.882011413574219,-11.944971084594727,14.169184684753418
1657787295264867300,2.285867431640625,8.059182167053223,-12.000038146972656,14.159607887268066
1657787295266868200,2.2878681640625,8.138191223144531,-12.071864128112793,14.162002563476562
1657787295268868900,2.289868896484375,8.281843185424805,-12.1101713180542,14.159607887268066
1657787295270869800,2.291869873046875,8.399158477783203,-12.241852760314941,14.164396286010742
1657787295272870400,2.293870361328125,8.454225540161133,-12.35677433013916,14.17636775970459
1657787295274871000,2.29587109375,8.492532730102539,-12.411840438842773,14.202703475952148
1657787295276871400,2.297871337890625,8.499714851379395,-12.524368286132812,14.188338279724121
1657787295278872000,2.2998720703125,8.487744331359863,-12.632107734680176,14.193126678466797
1657787295280872700,2.301872802734375,8.47098445892334,-12.694356918334961,14.200309753417969
1657787295282873000,2.303873046875,8.461407661437988,-12.84519100189209,14.217068672180176
1657787295284873200,2.305873291015625,8.459013938903809,-12.996026039123535,14.221857070922852
1657787295286873900,2.307873779296875,8.456619262695312,-13.067852020263672,14.200309753417969
1657787295288874200,2.309874267578125,8.451830863952637,-13.20671558380127,14.169184684753418
1657787295290874600,2.31187451171875,8.406341552734375,-13.367127418518066,14.147637367248535
1657787295292875000,2.313875,8.384793281555176,-13.4413480758667,14.102147102355957
1657787295294875400,2.31587548828125,8.351274490356445,-13.5778169631958,14.05186939239502
1657787295296875800,2.317875732421875,8.336909294128418,-13.647249221801758,14.006379127502441
1657787295298876200,2.319876220703125,8.284236907958984,-13.762170791625977,13.90582275390625
1657787295300875300,2.321875244140625,8.150161743164062,-13.975255012512207,13.66879653930664
1657787295302874400,2.323874267578125,8.150161743164062,-13.975255012512207,13.66879653930664
1657787295304874500,2.32587451171875,8.12861442565918,-14.025532722473145,13.613730430603027
1657787295306874400,2.327874267578125,8.085518836975098,-14.080599784851074,13.491625785827637
1657787295308874200,2.329874267578125,8.078335762023926,-14.111723899841309,13.415011405944824
1657787295310875000,2.331875,8.047211647033691,-14.181156158447266,13.249811172485352
1657787295312875000,2.333875,8.054393768310547,-14.231433868408203,13.087005615234375
1657787295314875100,2.335875244140625,8.061576843261719,-14.250587463378906,13.005602836608887
1657787295316875000,2.337875,8.133402824401855,-14.260164260864258,12.852374076843262
1657787295318875100,2.339875244140625,8.260294914245605,-14.24340534210205,12.682385444641113
1657787295320876000,2.3418759765625,8.334515571594238,-14.2338285446167,12.620136260986328
1657787295322877000,2.343876953125,8.492532730102539,-14.205098152160645,12.471695899963379
1657787295324875800,2.345875732421875,8.655338287353516,-14.229040145874023,12.368744850158691
1657787295326876000,2.3478759765625,8.734347343444824,-14.231433868408203,12.313678741455078
1657787295328875800,2.349875732421875,8.901941299438477,-14.279317855834961,12.249034881591797
1657787295330876000,2.3518759765625,9.057564735412598,-14.324808120727539,12.186785697937012
1657787295332875800,2.353875732421875,9.115025520324707,-14.348750114440918,12.155661582946777
1657787295334876000,2.3558759765625,9.206005096435547,-14.418182373046875,12.129324913024902
1657787295336875800,2.357875732421875,9.263465881347656,-14.521132469177246,12.14129638671875
1657787295338876000,2.3598759765625,9.280224800109863,-14.585776329040527,12.136507987976074
1657787295340875000,2.361875,9.292196273803711,-15.02900218963623,12.031163215637207
1657787295342874000,2.3638740234375,9.253889083862305,-15.074492454528809,11.9928560256958
1657787295344873500,2.36587353515625,9.253889083862305,-15.074492454528809,11.9928560256958
1657787295346872600,2.36787255859375,9.253889083862305,-15.074492454528809,11.9928560256958
1657787295348872400,2.36987255859375,9.222764015197754,-15.119982719421387,11.956942558288574
1657787295350872000,2.3718720703125,9.206005096435547,-15.153501510620117,11.901875495910645
1657787295352872200,2.3738720703125,9.141361236572266,-15.182231903076172,11.791742324829102
1657787295354873000,2.375873046875,9.083900451660156,-15.23011589050293,11.705551147460938
1657787295356873200,2.377873291015625,9.04559326171875,-15.256451606750488,11.662455558776855
1657787295358873300,2.379873291015625,8.942642211914062,-15.340249061584473,11.59781265258789
1657787295360874200,2.381874267578125,8.827720642089844,-15.428833961486816,11.4972562789917
1657787295362875100,2.383875244140625,8.765471458435059,-15.47911262512207,11.456554412841797
1657787295364875000,2.385875,8.629002571105957,-15.582063674926758,11.38712215423584
1657787295366874600,2.38787451171875,8.454225540161133,-15.689802169799805,11.32966136932373
1657787295368874800,2.389874755859375,8.356062889099121,-15.744869232177734,11.303325653076172
1657787295370874000,2.3918740234375,8.159738540649414,-15.81908893585205,11.22671127319336
1657787295372874500,2.39387451171875,7.958625793457031,-15.850214004516602,11.14770221710205
1657787295374874600,2.39587451171875,7.8652520179748535,-15.845425605773926,11.095029830932617
1657787295376874800,2.397874755859375,7.697657585144043,-15.816695213317871,11.001656532287598
1657787295378874600,2.39987451171875,7.522881031036377,-15.835848808288574,10.913070678710938
1657787295380873700,2.401873779296875,6.8285627365112305,-16.21173858642578,10.769418716430664
1657787295382872000,2.4038720703125,6.742371082305908,-16.254833221435547,10.728716850280762
1657787295384871200,2.40587109375,6.653785705566406,-16.281169891357422,10.692804336547852
1657787295386870300,2.407870361328125,6.653785705566406,-16.281169891357422,10.692804336547852
1657787295388869400,2.409869384765625,6.577171325683594,-16.288352966308594,10.673650741577148
1657787295390868500,2.411868408203125,6.577171325683594,-16.288352966308594,10.673650741577148
1657787295392867600,2.41386767578125,6.577171325683594,-16.288352966308594,10.673650741577148
1657787295394867700,2.41586767578125,6.4287309646606445,-16.309900283813477,10.623372077941895
1657787295396867600,2.41786767578125,6.304232120513916,-16.305112838745117,10.527604103088379
1657787295398867700,2.41986767578125,6.25395393371582,-16.288352966308594,10.47253704071045
1657787295400867600,2.42186767578125,6.182127952575684,-16.240468978881836,10.360010147094727
1657787295402867700,2.42386767578125,6.1414265632629395,-16.221315383911133,10.271424293518066
1657787295404867600,2.42586767578125,6.131849765777588,-16.20455551147461,10.225934982299805
1657787295406867500,2.427867431640625,6.093542575836182,-16.175825119018555,10.115801811218262
1657787295408867300,2.429867431640625,6.064812183380127,-16.1470947265625,9.972148895263672
1657787295410867000,2.431866943359375,6.062417984008789,-16.130334854125977,9.89553451538086
1657787295412866800,2.43386669921875,6.045658588409424,-16.072874069213867,9.730335235595703
1657787295414865400,2.435865478515625,6.0528411865234375,-16.02020263671875,9.557952880859375
1657787295416865300,2.437865234375,6.057629585266113,-16.013019561767578,9.47654914855957
1657787295418865200,2.439865234375,6.057629585266113,-15.986682891845703,9.306561470031738
1657787295420862700,2.44186279296875,6.028899192810059,-15.737686157226562,8.408735275268555
1657787295422860500,2.443860595703125,6.033687591552734,-15.6921968460083,8.28902530670166
1657787295424858400,2.4458583984375,6.03847599029541,-15.651494979858398,8.16452693939209
1657787295426856400,2.4478564453125,6.03847599029541,-15.651494979858398,8.16452693939209
1657787295428856300,2.449856201171875,6.03847599029541,-15.651494979858398,8.16452693939209
1657787295430854700,2.451854736328125,6.036081790924072,-15.60361099243164,8.054393768310547
1657787295432854500,2.4538544921875,6.03847599029541,-15.550938606262207,7.958625793457031
1657787295434854400,2.4558544921875,6.036081790924072,-15.507843017578125,7.8652520179748535
1657787295436854300,2.457854248046875,5.997774600982666,-15.404891967773438,7.654561996459961
1657787295438858200,2.459858154296875,5.94749641418457,-15.292365074157715,7.410353660583496
1657787295440858000,2.461858154296875,5.925948619842529,-15.225327491760254,7.2882490158081055
1657787295442858200,2.463858154296875,5.885247230529785,-15.108011245727539,7.027281284332275
1657787295444858000,2.465858154296875,5.811026573181152,-14.983512878417969,6.78546667098999
1657787295446858200,2.467858154296875,5.758354187011719,-14.916475296020508,6.656179904937744
1657787295448858000,2.469858154296875,5.672163009643555,-14.787188529968262,6.423942565917969
1657787295450856200,2.471856201171875,5.578789234161377,-14.66478443145752,6.198887348175049
1657787295452856000,2.47385595703125,5.535693645477295,-14.590564727783203,6.107907772064209
1657787295454856000,2.47585595703125,5.4159836769104,-14.451701164245605,5.923554420471191
1657787295456855800,2.477855712890625,5.286696434020996,-14.30325984954834,5.753565788269043
1657787295458855700,2.479855712890625,5.231629848480225,-14.229040145874023,5.693710803985596
1657787295460853200,2.481853271484375,5.040093898773193,-13.984831809997559,5.492598056793213
1657787295462853400,2.483853271484375,4.963479518890381,-13.889062881469727,5.430348873138428
1657787295464855000,2.48585498046875,4.886565685272217,-13.802871704101562,5.365705490112305
1657787295466855000,2.48785498046875,4.754884719848633,-13.63288402557373,5.245995044708252
1657787295468855000,2.48985498046875,4.60165548324585,-13.462895393371582,5.15740966796875
1657787295470854400,2.4918544921875,4.527435302734375,-13.38628101348877,5.116708278656006
1657787295472854300,2.493854248046875,4.376600742340088,-13.254599571228027,5.054459095001221
1657787295474854400,2.4958544921875,4.240131378173828,-13.168408393859863,4.9491143226623535
1657787295476854300,2.497854248046875,4.163516521453857,-13.122919082641602,4.9060187339782715
1657787295478854400,2.4998544921875,3.9887399673461914,-13.05588150024414,4.829104900360107
1657787295480854300,2.501854248046875,3.8355112075805664,-12.993632316589355,4.7620673179626465
1657787295482854400,2.5038544921875,3.7421371936798096,-12.948142051696777,4.714183330535889
1657787295484854300,2.505854248046875,3.550601005554199,-12.859556198120117,4.60165548324585
1657787295486854100,2.507854248046875,3.3638534545898438,-12.730269432067871,4.491522312164307
1657787295488854300,2.509854248046875,3.272873640060425,-12.665626525878906,4.441244125366211
1657787295490854100,2.511854248046875,3.1100680828094482,-12.512397766113281,4.323928356170654
1657787295492854000,2.51385400390625,2.9305028915405273,-12.351985931396484,4.194641590118408
1657787295494854100,2.515854248046875,2.8419175148010254,-12.270583152770996,4.141968727111816
1657787295496854000,2.51785400390625,2.6575639247894287,-12.114959716796875,4.060565948486328
1657787295498854100,2.519854248046875,2.4851813316345215,-11.966519355773926,3.9887399673461914
1657787295500853200,2.521853271484375,2.2409727573394775,-11.760618209838867,3.928884983062744
1657787295502852400,2.523852294921875,2.161964178085327,-11.68879222869873,3.907337188720703
1657787295504852200,2.525852294921875,2.0829553604125977,-11.604994773864746,3.869029998779297
1657787295506852000,2.52785205078125,2.008735179901123,-11.518803596496582,3.840299606323242
1657787295508852200,2.529852294921875,1.8842366933822632,-11.336844444274902,3.7660791873931885
1657787295510852600,2.5318525390625,1.7334020137786865,-11.126154899597168,3.6798880100250244
1657787295512852500,2.5338525390625,1.6663644313812256,-11.02320384979248,3.622427225112915
1657787295514852600,2.5358525390625,1.556231141090393,-10.805331230163574,3.490746021270752
1657787295516852500,2.5378525390625,1.479616641998291,-10.585064888000488,3.359065055847168
1657787295518852600,2.5398525390625,1.4389152526855469,-10.47253704071045,3.28963303565979
1657787295520853500,2.541853515625,1.3766659498214722,-10.249876976013184,3.181894063949585
1657787295522853000,2.54385302734375,1.316810965538025,-10.046369552612305,3.114856481552124
1657787295524852500,2.5458525390625,1.278503656387329,-9.943418502807617,3.07415509223938
1657787295526852600,2.5478525390625,1.2521674633026123,-9.74709415435791,3.002328872680664
1657787295528851700,2.549851806640625,1.237802267074585,-9.569923400878906,2.9448680877685547
1657787295530852000,2.55185205078125,1.235408067703247,-9.481337547302246,2.918531894683838
1657787295532852000,2.55385205078125,1.213860273361206,-9.304166793823242,2.8778305053710938
1657787295534851800,2.555851806640625,1.2066776752471924,-9.141361236572266,2.832340717315674
1657787295536852000,2.55785205078125,1.2114660739898682,-9.081506729125977,2.7940332889556885
1657787295538851800,2.559851806640625,1.2186486721038818,-8.925883293151855,2.698265314102173
1657787295540851000,2.561850830078125,1.2521674633026123,-8.370428085327148,2.250549554824829
1657787295542850000,2.56385009765625,1.2521674633026123,-8.370428085327148,2.250549554824829
1657787295544849200,2.56584912109375,1.2521674633026123,-8.370428085327148,2.250549554824829
1657787295546848300,2.56784814453125,1.256955862045288,-8.296208381652832,2.164358377456665
1657787295548848400,2.569848388671875,1.256955862045288,-8.296208381652832,2.164358377456665
1657787295550848500,2.5718486328125,1.2713210582733154,-8.16452693939209,1.944091796875
1657787295552848400,2.573848388671875,1.278503656387329,-8.056788444519043,1.7046716213226318
1657787295554848500,2.5758486328125,1.2737152576446533,-8.013691902160645,1.5610195398330688
1657787295556848400,2.577848388671875,1.2473790645599365,-7.922712802886963,1.3072341680526733
1657787295558848500,2.5798486328125,1.2090718746185303,-7.89158821105957,1.072602391242981
1657787295560849400,2.581849365234375,1.1851298809051514,-7.884405612945557,0.9576807022094727
1657787295562850300,2.583850341796875,1.1085153818130493,-7.848492622375488,0.7254431247711182
1657787295564850200,2.58585009765625,1.036689281463623,-7.819762229919434,0.4692635238170624
1657787295566850300,2.587850341796875,1.0127472877502441,-7.805397033691406,0.33758243918418884
1657787295568850200,2.58985009765625,0.9481038451194763,-7.76948356628418,0.0454898327589035
1657787295570850300,2.591850341796875,0.8786720037460327,-7.743147373199463,-0.2513911724090576
1657787295572850400,2.593850341796875,0.8547300100326538,-7.72399377822876,-0.4118026793003082
1657787295574850300,2.595850341796875,0.8188169598579407,-7.67850399017334,-0.7326257228851318
1657787295576850400,2.597850341796875,0.811634361743927,-7.640196800231934,-1.048660397529602
1657787295578850300,2.599850341796875,0.8092401623725891,-7.594707012176514,-1.192312479019165
1657787295580849400,2.601849365234375,0.9720458984375,-7.19248104095459,-2.054224967956543
1657787295582848800,2.603848876953125,0.9720458984375,-7.14699125289917,-2.054224967956543
1657787295584848000,2.605847900390625,1.0007762908935547,-7.14699125289917,-2.0638017654418945
1657787295586847000,2.607846923828125,1.0271124839782715,-7.094318866729736,-2.054224967956543
1657787295588846800,2.609846923828125,1.0271124839782715,-7.094318866729736,-2.054224967956543
1657787295590846000,2.611845947265625,1.0271124839782715,-7.094318866729736,-2.054224967956543
1657787295592846000,2.61384619140625,1.05105459690094,-7.0464348793029785,-2.030282974243164
1657787295594846000,2.615845947265625,1.115697979927063,-6.96503210067749,-1.9177556037902832
1657787295596846000,2.61784619140625,1.1276689767837524,-6.943484306335449,-1.8387469053268433
1657787295598846000,2.619845947265625,1.1659762859344482,-6.864475727081299,-1.6352397203445435
1657787295600846000,2.62184619140625,1.173158884048462,-6.7806782722473145,-1.400607943534851
1657787295602846000,2.623845947265625,1.1635819673538208,-6.732794284820557,-1.278503656387329
1657787295604846000,2.62584619140625,1.1324573755264282,-6.637026309967041,-1.0127472877502441
1657787295606846000,2.627845947265625,1.0965443849563599,-6.529287338256836,-0.730231523513794
1657787295608845800,2.629845703125,1.072602391242981,-6.471826553344727,-0.5650315880775452
1657787295610845700,2.631845703125,1.01753568649292,-6.337751388549805,-0.29209262132644653
1657787295612845600,2.633845458984375,0.9361328482627869,-6.196493148803711,-0.035913024097681046
1657787295614845400,2.635845458984375,0.8834604024887085,-6.131849765777588,0.08858546614646912
1657787295616845300,2.63784521484375,0.7445967197418213,-6.019322395324707,0.33518823981285095
1657787295618845200,2.63984521484375,0.5961562395095825,-5.890035629272461,0.5506663918495178
