time,seconds_elapsed,z,y,x
1660273596310227500,0.1532275390625,0.01160643994808197,0.42088615894317627,-0.03298672288656235
1660273596312255500,0.15525537109375,0.04092797264456749,0.38667771220207214,0.01466076634824276
1660273596314255400,0.15725537109375,0.056810468435287476,0.36713001132011414,0.039095375686883926
1660273596316253400,0.15925341796875,0.08552113175392151,0.32131510972976685,0.08674286305904388
1660273596318253600,0.161253662109375,0.11423180252313614,0.2687807083129883,0.13011430203914642
1660273596320253400,0.16325341796875,0.13011430203914642,0.24434609711170197,0.15027284622192383
1660273596322253600,0.165253662109375,0.16982053220272064,0.1869247704744339,0.18814650177955627
1660273596324253400,0.16725341796875,0.21441370248794556,0.13500121235847473,0.22113321721553802
1660273596326253600,0.169253662109375,0.2376265823841095,0.10445795953273773,0.24129177629947662
1660273596328253400,0.17125341796875,0.29077184200286865,0.04886921867728233,0.27550023794174194
1660273596330253300,0.17325341796875,0.342695415019989,-0.006108652334660292,0.32009339332580566
1660273596332253200,0.175253173828125,0.37201693654060364,-0.03176499158143997,0.34086281061172485
1660273596334253000,0.177253173828125,0.42210787534713745,-0.08307767659425735,0.38667771220207214
1660273596336253000,0.1792529296875,0.4648684561252594,-0.1319468915462494,0.43127086758613586
1660273596338252800,0.181252685546875,0.48319441080093384,-0.15454891324043274,0.45265114307403564
1660273596340251000,0.1832509765625,0.5222898125648499,-0.22540926933288574,0.5180137157440186
1660273596342250800,0.185250732421875,0.5296201705932617,-0.2474004179239273,0.5381723046302795
1660273596344251000,0.1872509765625,0.5345070958137512,-0.2730567753314972,0.5558874011039734
1660273596346250800,0.189250732421875,0.5424483418464661,-0.3182607889175415,0.5919284224510193
1660273596348251000,0.1912509765625,0.5412266254425049,-0.36651915311813354,0.6120869517326355
1660273596350250800,0.193250732421875,0.543059229850769,-0.3891211748123169,0.616973876953125
1660273596352251000,0.1952509765625,0.5400048494338989,-0.4337143301963806,0.6120869517326355
1660273596354250800,0.197250732421875,0.5320636034011841,-0.4758640229701996,0.5913175344467163
1660273596356251000,0.1992509765625,0.5259549617767334,-0.49724429845809937,0.5736024379730225
1660273596358250800,0.201250732421875,0.504574716091156,-0.5418374538421631,0.5296201705932617
1660273596360251000,0.2032509765625,0.4740314185619354,-0.5900958180427551,0.4789183437824249
1660273596362250800,0.205250732421875,0.45753806829452515,-0.6139195561408997,0.4508185386657715
1660273596364251000,0.2072509765625,0.41661009192466736,-0.6603453159332275,0.39156460762023926
1660273596366250800,0.209250732421875,0.37079519033432007,-0.6994407176971436,0.32620203495025635
1660273596368250600,0.211250732421875,0.34697145223617554,-0.7183775305747986,0.2919935882091522
1660273596370250800,0.213250732421875,0.2987131178379059,-0.7483099102973938,0.2217440903186798
1660273596372250600,0.215250732421875,0.24678955972194672,-0.769690215587616,0.15332718193531036
1660273596374250500,0.21725048828125,0.21991148591041565,-0.7733554244041443,0.1160643994808197
1660273596376250600,0.219250732421875,0.16859880089759827,-0.778853178024292,0.045204028487205505
1660273596378250800,0.221250732421875,0.11239920556545258,-0.7721336483955383,-0.024434609338641167
1660273596380249900,0.223249755859375,0.02871066704392433,-0.749531626701355,-0.12339477986097336
1660273596382249000,0.2252490234375,0.001832595793530345,-0.7342600226402283,-0.15577064454555511
1660273596384249000,0.2272490234375,-0.027488935738801956,-0.7195992469787598,-0.18997909128665924
1660273596386249200,0.229249267578125,-0.05619960278272629,-0.6982190012931824,-0.21807889640331268
1660273596388249000,0.2312490234375,-0.11239920556545258,-0.6493497490882874,-0.27122417092323303
1660273596390249200,0.233249267578125,-0.16310101747512817,-0.5907067060470581,-0.323147714138031
1660273596392249300,0.235249267578125,-0.1869247704744339,-0.5564982295036316,-0.3445279896259308
1660273596394249200,0.237249267578125,-0.23457226157188416,-0.484416127204895,-0.3836233615875244
1660273596396249300,0.239249267578125,-0.27977627515792847,-0.41172316670417786,-0.4153883755207062
1660273596398249200,0.241249267578125,-0.2974913716316223,-0.37140607833862305,-0.42699480056762695
1660273596400249900,0.243249755859375,-0.33475416898727417,-0.294437050819397,-0.44593164324760437
1660273596402250000,0.24525,-0.36529740691185,-0.22357667982578278,-0.45265114307403564
1660273596404250000,0.24725,-0.38179078698158264,-0.18814650177955627,-0.4550946056842804
1660273596406250000,0.24925,-0.4080579876899719,-0.12034045159816742,-0.4495968222618103
1660273596408249900,0.251249755859375,-0.4306600093841553,-0.05497787147760391,-0.43188172578811646
1660273596410250000,0.25325,-0.43799036741256714,-0.024434609338641167,-0.42271876335144043
1660273596412249900,0.255249755859375,-0.4538728892803192,0.03787364438176155,-0.39584067463874817
1660273596414249700,0.257249755859375,-0.4642575979232788,0.10262536257505417,-0.3646865487098694
1660273596416249900,0.259249755859375,-0.4642575979232788,0.1313360333442688,-0.34636059403419495
1660273596418249700,0.261249755859375,-0.4691445231437683,0.17959438264369965,-0.3127630054950714
1660273596420248800,0.263248779296875,-0.46364670991897583,0.31642818450927734,-0.16065755486488342
1660273596422248200,0.265248291015625,-0.46364670991897583,0.31642818450927734,-0.16065755486488342
1660273596424247300,0.267247314453125,-0.46364670991897583,0.31642818450927734,-0.16065755486488342
1660273596426246400,0.269246337890625,-0.46364670991897583,0.31642818450927734,-0.16065755486488342
1660273596428246500,0.27124658203125,-0.46181413531303406,0.3243694305419922,-0.13500121235847473
1660273596430246400,0.273246337890625,-0.45692721009254456,0.32986724376678467,-0.08674286305904388
1660273596432246500,0.27524658203125,-0.4550946056842804,0.3225368559360504,-0.036651913076639175
1660273596434246700,0.27724658203125,-0.455705463886261,0.31581732630729675,-0.010995574295520782
1660273596436246500,0.27924658203125,-0.45265114307403564,0.2974913716316223,0.0403171069920063
1660273596438246700,0.28124658203125,-0.4538728892803192,0.26572638750076294,0.09162978827953339
1660273596440247000,0.2832470703125,-0.45326200127601624,0.24862214922904968,0.11362093687057495
1660273596442248000,0.285248046875,-0.45142942667007446,0.2064724564552307,0.16065755486488342
1660273596444247600,0.28724755859375,-0.45204028487205505,0.1514945775270462,0.20891591906547546
1660273596446247700,0.28924755859375,-0.45265114307403564,0.12095131725072861,0.23029619455337524
1660273596448247600,0.29124755859375,-0.4605923891067505,0.05742133408784866,0.2724458873271942
1660273596450247700,0.29324755859375,-0.4740314185619354,-0.015882495790719986,0.31459560990333557
1660273596452247600,0.29524755859375,-0.4813618063926697,-0.054367005825042725,0.33658674359321594
1660273596454247700,0.29724755859375,-0.503963828086853,-0.13439035415649414,0.37629300355911255
1660273596456247600,0.29924755859375,-0.5210680365562439,-0.21991148591041565,0.41661009192466736
1660273596458247400,0.301247314453125,-0.5283984541893005,-0.2638937830924988,0.4355469346046448
1660273596460246800,0.303246826171875,-0.616973876953125,-0.4092797040939331,0.5143485069274902
1660273596462246000,0.305245849609375,-0.6304129362106323,-0.41172316670417786,0.5204572081565857
1660273596464245000,0.307244873046875,-0.6304129362106323,-0.41172316670417786,0.5204572081565857
1660273596466244400,0.309244384765625,-0.6304129362106323,-0.41172316670417786,0.5204572081565857
1660273596468244200,0.311244140625,-0.6304129362106323,-0.4178318381309509,0.5253441333770752
1660273596470244400,0.313244384765625,-0.6633996367454529,-0.4147774875164032,0.5290092825889587
1660273596472244200,0.315244140625,-0.6963863968849182,-0.41233405470848083,0.5375614166259766
1660273596474244400,0.317244384765625,-0.7147123217582703,-0.4043927788734436,0.5406157374382019
1660273596476244500,0.319244384765625,-0.750142514705658,-0.3695734739303589,0.5345070958137512
1660273596478244400,0.321244384765625,-0.7867944240570068,-0.3445279896259308,0.5314527750015259
1660273596480245200,0.323245361328125,-0.8051204085350037,-0.33292156457901,0.5314527750015259
1660273596482246100,0.32524609375,-0.8350527882575989,-0.32620203495025635,0.53328537940979
1660273596484247000,0.3272470703125,-0.8674286603927612,-0.33047810196876526,0.53328537940979
1660273596486248000,0.329248046875,-0.8820894360542297,-0.34147366881370544,0.5412266254425049
1660273596488247800,0.331247802734375,-0.9071348905563354,-0.3683517575263977,0.5442809462547302
1660273596490247700,0.33324755859375,-0.9260717034339905,-0.3982841372489929,0.5485569834709167
1660273596492247800,0.335247802734375,-0.9395107626914978,-0.4092797040939331,0.5503895878791809
1660273596494247700,0.33724755859375,-0.960280179977417,-0.4306600093841553,0.5436700582504272
1660273596496247600,0.33924755859375,-0.9822713136672974,-0.45326200127601624,0.5326744914054871
1660273596498247700,0.34124755859375,-0.9908234477043152,-0.4660901725292206,0.5277875661849976
1660273596500247000,0.3432470703125,-1.027475357055664,-0.5674937963485718,0.4593706727027893
1660273596502246400,0.345246337890625,-1.0256427526474,-0.5778785347938538,0.4593706727027893
1660273596504245500,0.34724560546875,-1.0256427526474,-0.5778785347938538,0.4593706727027893
1660273596506244600,0.34924462890625,-1.0195341110229492,-0.5803219676017761,0.455705463886261
1660273596508243700,0.35124365234375,-1.0195341110229492,-0.5803219676017761,0.455705463886261
1660273596510243800,0.353243896484375,-1.0195341110229492,-0.5803219676017761,0.455705463886261
1660273596512244200,0.355244140625,-1.007927656173706,-0.5748242139816284,0.45753806829452515
1660273596514244000,0.357244140625,-0.979827880859375,-0.5674937963485718,0.45875978469848633
1660273596516243700,0.35924365234375,-0.9645562171936035,-0.5650503635406494,0.4599815309047699
1660273596518243800,0.361243896484375,-0.9321803450584412,-0.5479460954666138,0.4660901725292206
1660273596520243700,0.36324365234375,-0.8924741148948669,-0.5338962078094482,0.4795292317867279
1660273596522243800,0.365243896484375,-0.8717046976089478,-0.5302310585975647,0.4905247986316681
1660273596524243700,0.36724365234375,-0.8222246170043945,-0.5186246037483215,0.5161811113357544
1660273596526243800,0.369243896484375,-0.7770205736160278,-0.503963828086853,0.5436700582504272
1660273596528243700,0.37124365234375,-0.7507534027099609,-0.4960225820541382,0.5613851547241211
1660273596530243800,0.373243896484375,-0.6988298296928406,-0.48380526900291443,0.6017022728919983
1660273596532243700,0.37524365234375,-0.6450737118721008,-0.4764748811721802,0.6475171446800232
1660273596534243800,0.377243896484375,-0.6163630485534668,-0.47830748558044434,0.675006091594696
1660273596536243700,0.37924365234375,-0.5589417219161987,-0.4795292317867279,0.7324274182319641
1660273596538243800,0.381243896484375,-0.504574716091156,-0.5088507533073425,0.7959573864936829
1660273596540241200,0.3832412109375,-0.45265114307403564,-0.5723807215690613,0.8723155856132507
1660273596542241300,0.3852412109375,-0.4300491213798523,-0.6206390857696533,0.9144652485847473
1660273596544241200,0.3872412109375,-0.3878994286060333,-0.7367035150527954,1.0073168277740479
1660273596546241300,0.3892412109375,-0.37079519033432007,-0.8069530129432678,1.054964303970337
1660273596548241400,0.391241455078125,-0.34513887763023376,-0.9450085163116455,1.147204875946045
1660273596550241300,0.3932412109375,-0.33169981837272644,-1.081842303276062,1.2333369255065918
1660273596552241400,0.395241455078125,-0.33108896017074585,-1.149037480354309,1.273043155670166
1660273596554241500,0.397241455078125,-0.3439171314239502,-1.2767083644866943,1.3371840715408325
1660273596556241400,0.399241455078125,-0.375071257352829,-1.398881435394287,1.386053204536438
1660273596558241500,0.401241455078125,-0.39706242084503174,-1.4611896276474,1.4062118530273438
1660273596560241700,0.40324169921875,-0.4593706727027893,-1.5827518701553345,1.431868076324463
1660273596562241500,0.405241455078125,-0.5369505286216736,-1.7037031650543213,1.4410310983657837
1660273596564241700,0.40724169921875,-0.5809328556060791,-1.7660114765167236,1.444696307182312
1660273596566241500,0.409241455078125,-0.6805039048194885,-1.881464958190918,1.436144232749939
1660273596568241700,0.41124169921875,-0.7867944240570068,-1.976149082183838,1.4123204946517944
1660273596570241500,0.413241455078125,-0.8442157506942749,-2.010357618331909,1.3946053981781006
1660273596572241700,0.41524169921875,-0.960280179977417,-2.0647244453430176,1.3518447875976562
1660273596574241500,0.417241455078125,-1.073290228843689,-2.102598190307617,1.3017538785934448
1660273596576241700,0.41924169921875,-1.129489779472351,-2.1111502647399902,1.2748757600784302
1660273596578241800,0.42124169921875,-1.2302825450897217,-2.119091510772705,1.2150110006332397
1660273596580241000,0.423240966796875,-1.398881435394287,-2.1142046451568604,1.0873401165008545
1660273596582240000,0.425239990234375,-1.398881435394287,-2.1142046451568604,1.0873401165008545
1660273596584239600,0.427239501953125,-1.4294246435165405,-2.109928607940674,1.0543533563613892
1660273596586239700,0.42923974609375,-1.4795156717300415,-2.0958786010742188,0.9865473508834839
1660273596588239600,0.431239501953125,-1.5015068054199219,-2.0897700786590576,0.9517280459403992
1660273596590239700,0.43323974609375,-1.5234979391098022,-2.072054862976074,0.8845328688621521
1660273596592239900,0.435239990234375,-1.531439185142517,-2.0445659160614014,0.816726803779602
1660273596594239700,0.43723974609375,-1.5289957523345947,-2.029905319213867,0.7843509912490845
1660273596596240000,0.439239990234375,-1.511891484260559,-1.99447500705719,0.7183775305747986
1660273596598239700,0.44123974609375,-1.483791708946228,-1.9504927396774292,0.6548475623130798
1660273596600240600,0.44324072265625,-1.4624114036560059,-1.9285016059875488,0.6249151229858398
1660273596602240500,0.445240478515625,-1.4129313230514526,-1.881464958190918,0.5656611919403076
1660273596604240600,0.44724072265625,-1.350012183189392,-1.8277088403701782,0.513126790523529
1660273596606240500,0.449240478515625,-1.3170254230499268,-1.80510675907135,0.4905247986316681
1660273596608240600,0.45124072265625,-1.2418889999389648,-1.7568484544754028,0.44715335965156555
1660273596610240500,0.453240478515625,-1.1618657112121582,-1.700037956237793,0.4092797040939331
1660273596612240600,0.45524072265625,-1.120937705039978,-1.6701055765151978,0.3927863538265228
1660273596614240500,0.457240478515625,-1.0403034687042236,-1.6187928915023804,0.3628539443016052
1660273596616240400,0.459240478515625,-0.959669291973114,-1.5650367736816406,0.33292156457901
1660273596618240500,0.461240478515625,-0.9260717034339905,-1.5448782444000244,0.3194825351238251
1660273596620239600,0.463239501953125,-0.6841690540313721,-1.4110987186431885,0.22602014243602753
1660273596622238700,0.46523876953125,-0.6841690540313721,-1.4110987186431885,0.22602014243602753
1660273596624237800,0.46723779296875,-0.6841690540313721,-1.4110987186431885,0.22602014243602753
1660273596626237000,0.46923681640625,-0.6841690540313721,-1.4110987186431885,0.22602014243602753
1660273596628237000,0.471237060546875,-0.66584312915802,-1.3933836221694946,0.21502456068992615
1660273596630237000,0.47323681640625,-0.6511823534965515,-1.3817771673202515,0.2021963894367218
1660273596632237000,0.475237060546875,-0.6188064813613892,-1.356731653213501,0.17776179313659668
1660273596634237000,0.47723681640625,-0.6017022728919983,-1.3267992734909058,0.15515977144241333
1660273596636237000,0.479237060546875,-0.5968153476715088,-1.310916781425476,0.14538592100143433
1660273596638237200,0.4812373046875,-0.5919284224510193,-1.2834278345108032,0.12400564551353455
1660273596640237800,0.48323779296875,-0.5894849896430969,-1.2467759847640991,0.10323622822761536
1660273596642238700,0.48523876953125,-0.588874101638794,-1.2247848510742188,0.09712757170200348
1660273596644239000,0.487239013671875,-0.5974262356758118,-1.1838568449020386,0.08246681094169617
1660273596646239000,0.489239013671875,-0.6029239892959595,-1.1166616678237915,0.05803219974040985
1660273596648239000,0.491239013671875,-0.6041457056999207,-1.0696250200271606,0.036041051149368286
1660273596650239000,0.493239013671875,-0.6065891981124878,-0.9291260242462158,-0.02871066704392433
1660273596652238800,0.49523876953125,-0.5974262356758118,-0.6805039048194885,-0.15821409225463867
1660273596654239000,0.497239013671875,-0.588263213634491,-0.504574716091156,-0.25534167885780334
1660273596656238800,0.49923876953125,-0.5638286471366882,-0.12400564551353455,-0.48258355259895325
1660273596658239000,0.501239013671875,-0.5418374538421631,0.16920967400074005,-0.675616979598999
1660273596660238000,0.503238037109375,-0.4862487316131592,0.7458664774894714,-0.9156870245933533
1660273596662237200,0.5052373046875,-0.4862487316131592,0.7458664774894714,-0.9156870245933533
1660273596664236300,0.507236328125,-0.4862487316131592,0.7458664774894714,-0.9156870245933533
1660273596666235400,0.5092353515625,-0.4862487316131592,0.7458664774894714,-0.9156870245933533
1660273596668235300,0.5112353515625,-0.4605923891067505,0.8350527882575989,-0.9358455538749695
1660273596670235400,0.5132353515625,-0.40133845806121826,1.0073168277740479,-0.9718865752220154
1660273596672235500,0.515235595703125,-0.36651915311813354,1.076344609260559,-0.9896016716957092
1660273596674235400,0.5172353515625,-0.3066543638706207,1.1814134120941162,-1.018923282623291
1660273596676235500,0.519235595703125,-0.252287358045578,1.2345587015151978,-1.0280861854553223
1660273596678235400,0.5212353515625,-0.22540926933288574,1.2473868131637573,-1.0280861854553223
1660273596680236300,0.523236328125,-0.1820378452539444,1.2565498352050781,-1.0207557678222656
1660273596682237200,0.5252373046875,-0.14233160018920898,1.2443325519561768,-1.0073168277740479
1660273596684238300,0.52723828125,-0.12828169763088226,1.23394775390625,-0.9993755221366882
1660273596686239200,0.5292392578125,-0.10751228034496307,1.2009611129760742,-0.9896016716957092
1660273596688239000,0.531239013671875,-0.09712757170200348,1.1551461219787598,-0.9737191796302795
1660273596690239000,0.533239013671875,-0.09712757170200348,1.1264355182647705,-0.9633345007896423
1660273596692239000,0.535239013671875,-0.09957103431224823,1.0604621171951294,-0.9419541954994202
1660273596694239000,0.537239013671875,-0.10384709388017654,0.988379955291748,-0.9150761365890503
1660273596696238800,0.53923876953125,-0.10751228034496307,0.9468411207199097,-0.8973610401153564
1660273596698239000,0.541239013671875,-0.11423180252313614,0.8631525635719299,-0.8631525635719299
1660273596700238000,0.543238037109375,-0.10384709388017654,0.4599815309047699,-0.675616979598999
1660273596702237200,0.5452373046875,-0.10262536257505417,0.4080579876899719,-0.645684540271759
1660273596704236300,0.547236328125,-0.09651670604944229,0.35735616087913513,-0.618195652961731
1660273596706235400,0.5492353515625,-0.09651670604944229,0.35735616087913513,-0.618195652961731
1660273596708234800,0.55123486328125,-0.09651670604944229,0.35735616087913513,-0.618195652961731
1660273596710234000,0.553234130859375,-0.09651670604944229,0.35735616087913513,-0.618195652961731
1660273596712234000,0.55523388671875,-0.08429940044879913,0.2571742534637451,-0.5650503635406494
1660273596714234000,0.557234130859375,-0.08002334833145142,0.21013765037059784,-0.5363397002220154
1660273596716234000,0.55923388671875,-0.06780604273080826,0.12339477986097336,-0.4813618063926697
1660273596718234000,0.561234130859375,-0.060475658625364304,0.05009094998240471,-0.4288274049758911
1660273596720233000,0.56323291015625,-0.05497787147760391,0.025045474991202354,-0.4050036668777466
1660273596722233000,0.565233154296875,-0.05192354694008827,0.009773843921720982,-0.3683517575263977
1660273596724227000,0.56722705078125,-0.10445795953273773,0.033597588539123535,-0.3494149148464203
1660273596726227200,0.569227294921875,-0.13255776464939117,0.07147123664617538,-0.3433062732219696
1660273596728227000,0.57122705078125,-0.1820378452539444,0.1966986060142517,-0.34636059403419495
1660273596730227200,0.573227294921875,-0.22418753802776337,0.3604104816913605,-0.35613444447517395
1660273596732226000,0.57522607421875,-0.24068090319633484,0.43799036741256714,-0.3628539443016052
1660273596734226200,0.57722607421875,-0.2742784917354584,0.5693264007568359,-0.3640756905078888
1660273596736226000,0.57922607421875,-0.3066543638706207,0.6633996367454529,-0.34086281061172485
1660273596738226200,0.58122607421875,-0.32498031854629517,0.6884451508522034,-0.3194825351238251
1660273596740223500,0.583223388671875,-0.3793473243713379,0.6609562039375305,-0.23945917189121246
1660273596742223400,0.585223388671875,-0.39584067463874817,0.6316346526145935,-0.20586158335208893
1660273596744223500,0.587223388671875,-0.4153883755207062,0.6010913848876953,-0.1765400618314743
1660273596746222600,0.58922265625,-0.45204028487205505,0.5522221922874451,-0.11056660860776901
1660273596748222500,0.591222412109375,-0.48258355259895325,0.5265658497810364,-0.048258353024721146
1660273596750222600,0.59322265625,-0.4996877610683441,0.5241223573684692,-0.021991148591041565
1660273596752222700,0.59522265625,-0.5259549617767334,0.5253441333770752,0.02626720629632473
1660273596754222800,0.597222900390625,-0.5473352670669556,0.5186246037483215,0.06414084881544113
1660273596756222700,0.59922265625,-0.5546656250953674,0.5088507533073425,0.07941248267889023
1660273596758222800,0.601222900390625,-0.5638286471366882,0.4795292317867279,0.10323622822761536
1660273596760223000,0.603222900390625,-0.5705481171607971,0.4349360466003418,0.11056660860776901
1660273596762222800,0.605222900390625,-0.5681046843528748,0.4086688458919525,0.11178833991289139
1660273596764223000,0.607222900390625,-0.5711590051651001,0.3536909818649292,0.10934487730264664
1660273596766223400,0.609223388671875,-0.5693264007568359,0.29565876722335815,0.10445795953273773
1660273596768223200,0.61122314453125,-0.5693264007568359,0.2626720666885376,0.10018189996480942
1660273596770223400,0.613223388671875,-0.5650503635406494,0.2021963894367218,0.08796459436416626
1660273596772223200,0.61522314453125,-0.5583308339118958,0.14233160018920898,0.0757472887635231
1660273596774223400,0.617223388671875,-0.5546656250953674,0.11239920556545258,0.07024950534105301
1660273596776223200,0.61922314453125,-0.5448917746543884,0.05619960278272629,0.059864792972803116
1660273596778223400,0.621223388671875,-0.5393940210342407,0.00366519158706069,0.045204028487205505
1660273596780222500,0.623222412109375,-0.5167919993400574,-0.07819075137376785,0.028099801391363144
1660273596782221600,0.6252216796875,-0.513126790523529,-0.10812314599752426,0.02321287989616394
1660273596784222000,0.627221923828125,-0.503963828086853,-0.13744467496871948,0.02015855349600315
1660273596786222600,0.62922265625,-0.494189977645874,-0.16554448008537292,0.01771509274840355
1660273596788222500,0.631222412109375,-0.4789183437824249,-0.22602014243602753,0.016493361443281174
1660273596790223000,0.63322314453125,-0.46303585171699524,-0.2889392673969269,0.016493361443281174
1660273596792223200,0.63522314453125,-0.45204028487205505,-0.3194825351238251,0.018936822190880775
1660273596794223400,0.637223388671875,-0.43799036741256714,-0.3799581825733185,0.025045474991202354
1660273596796223200,0.63922314453125,-0.4245513379573822,-0.4398229718208313,0.03176499158143997
1660273596798223400,0.641223388671875,-0.41722095012664795,-0.4642575979232788,0.039706241339445114
1660273596800224300,0.643224365234375,-0.4098905920982361,-0.513737678527832,0.05253441259264946
1660273596802224000,0.64522412109375,-0.4092797040939331,-0.5540547966957092,0.06902777403593063
1660273596804225300,0.647225341796875,-0.4098905920982361,-0.5723807215690613,0.07757988572120667
1660273596806225700,0.6492255859375,-0.4141666293144226,-0.59803706407547,0.09529497474431992
1660273596808225800,0.651225830078125,-0.42577308416366577,-0.6133087277412415,0.11484266817569733
1660273596810225700,0.6532255859375,-0.4331034719944,-0.6212499737739563,0.1258382350206375
1660273596812225500,0.6552255859375,-0.45142942667007446,-0.627358615398407,0.14355333149433136
1660273596814225700,0.6572255859375,-0.47280970215797424,-0.6304129362106323,0.1612684279680252
1660273596816225500,0.6592255859375,-0.48197266459465027,-0.6298020482063293,0.16920967400074005
1660273596818225400,0.661225341796875,-0.5002986192703247,-0.627358615398407,0.18875735998153687
1660273596820224500,0.663224609375,-0.5516113042831421,-0.6163630485534668,0.21868975460529327
1660273596822223600,0.6652236328125,-0.5516113042831421,-0.6163630485534668,0.21868975460529327
1660273596824222700,0.66722265625,-0.5516113042831421,-0.6163630485534668,0.21868975460529327
1660273596826221600,0.6692216796875,-0.5516113042831421,-0.6163630485534668,0.21868975460529327
1660273596828221700,0.6712216796875,-0.5516113042831421,-0.6163630485534668,0.21563543379306793
1660273596830221800,0.673221923828125,-0.5552765130996704,-0.6230825781822205,0.2064724564552307
1660273596832221700,0.6752216796875,-0.5546656250953674,-0.636521577835083,0.1820378452539444
1660273596834221800,0.677221923828125,-0.5546656250953674,-0.6444628238677979,0.16737708449363708
1660273596836221400,0.679221435546875,-0.5528330206871033,-0.6695083379745483,0.1270599663257599
1660273596838221300,0.68122119140625,-0.5461135506629944,-0.7037167549133301,0.07757988572120667
1660273596840222200,0.68322216796875,-0.543059229850769,-0.7232644557952881,0.04703662544488907
1660273596842223000,0.68522314453125,-0.5357288122177124,-0.769690215587616,-0.02015855349600315
1660273596844223000,0.687222900390625,-0.5247332453727722,-0.8234463334083557,-0.09712757170200348
1660273596846222600,0.68922265625,-0.5210680365562439,-0.8527678847312927,-0.14049901068210602
1660273596848222500,0.691222412109375,-0.5112941861152649,-0.9181304574012756,-0.22846360504627228
1660273596850222000,0.69322216796875,-0.4990769028663635,-0.9810495972633362,-0.32498031854629517
1660273596852222200,0.69522216796875,-0.494189977645874,-1.0128145217895508,-0.3744603991508484
1660273596854222000,0.69722216796875,-0.48380526900291443,-1.081842303276062,-0.47342056035995483
1660273596856222200,0.69922216796875,-0.47280970215797424,-1.1478158235549927,-0.5778785347938538
1660273596858222000,0.70122216796875,-0.4740314185619354,-1.1801916360855103,-0.6291912198066711
1660273596860221200,0.70322119140625,-0.4862487316131592,-1.367727279663086,-0.941343367099762
1660273596862220500,0.705220458984375,-0.4948008358478546,-1.3842206001281738,-0.9755517840385437
1660273596864218400,0.70721826171875,-0.4948008358478546,-1.3842206001281738,-0.9755517840385437
1660273596866217700,0.7092177734375,-0.4948008358478546,-1.3842206001281738,-0.9755517840385437
1660273596868217600,0.711217529296875,-0.5021312236785889,-1.3952162265777588,-1.0054842233657837
1660273596870217700,0.7132177734375,-0.5112941861152649,-1.4025466442108154,-1.035416603088379
1660273596872217600,0.715217529296875,-0.5277875661849976,-1.398881435394287,-1.0751228332519531
1660273596874217700,0.7172177734375,-0.5497786998748779,-1.377501130104065,-1.1007791757583618
1660273596876217900,0.7192177734375,-0.5601634383201599,-1.3573426008224487,-1.1062769889831543
1660273596878217700,0.7212177734375,-0.5827654600143433,-1.3054190874099731,-1.1074986457824707
1660273596880218600,0.723218505859375,-0.6035348773002625,-1.2327260971069336,-1.0897835493087769
1660273596882219500,0.725219482421875,-0.6102544069290161,-1.1905763149261475,-1.0787880420684814
1660273596884220400,0.727220458984375,-0.6285803318023682,-1.0965031385421753,-1.0384708642959595
1660273596886221300,0.72922119140625,-0.6432411074638367,-0.988990843296051,-0.988379955291748
1660273596888221200,0.73122119140625,-0.6493497490882874,-0.9327912330627441,-0.9578366875648499
1660273596890221000,0.733220947265625,-0.656680166721344,-0.8124507665634155,-0.8924741148948669
1660273596892221200,0.73522119140625,-0.6609562039375305,-0.6884451508522034,-0.816726803779602
1660273596894221000,0.737220947265625,-0.6597344875335693,-0.6243042945861816,-0.7800748944282532
1660273596896221700,0.7392216796875,-0.6579018831253052,-0.4954117238521576,-0.6969972252845764
1660273596898221800,0.741221923828125,-0.6505714654922485,-0.36713001132011414,-0.6133087277412415
1660273596900221000,0.743220947265625,-0.5803219676017761,0.11056660860776901,-0.2816088795661926
1660273596902220000,0.745219970703125,-0.5699372887611389,0.1618792861700058,-0.24495697021484375
1660273596904219400,0.747219482421875,-0.5552765130996704,0.21319197118282318,-0.21135938167572021
1660273596906218800,0.74921875,-0.5552765130996704,0.21319197118282318,-0.21135938167572021
1660273596908218000,0.751218017578125,-0.5552765130996704,0.21319197118282318,-0.21135938167572021
1660273596910217000,0.753217041015625,-0.5552765130996704,0.21319197118282318,-0.21135938167572021
1660273596912217000,0.755217041015625,-0.5436700582504272,0.2626720666885376,-0.1765400618314743
1660273596914217000,0.757217041015625,-0.5143485069274902,0.35674530267715454,-0.1160643994808197
1660273596916217000,0.759217041015625,-0.48685958981513977,0.4440990388393402,-0.06475171446800232
1660273596918217200,0.76121728515625,-0.46853363513946533,0.48380526900291443,-0.04214970022439957
1660273596920217000,0.763217041015625,-0.43676865100860596,0.5595525503158569,-0.006719517521560192
1660273596922216200,0.76521630859375,-0.40683624148368835,0.6279694437980652,0.021380282938480377
1660273596924215600,0.767215576171875,-0.3891211748123169,0.6603453159332275,0.03237585723400116
1660273596926215200,0.769215087890625,-0.35552358627319336,0.7116580009460449,0.04459316283464432
1660273596928215000,0.771215087890625,-0.3194825351238251,0.7562511563301086,0.04764748737215996
1660273596930215000,0.77321484375,-0.3029891550540924,0.7745771408081055,0.04398229718208313
1660273596932214500,0.775214599609375,-0.27000242471694946,0.8038986921310425,0.036651913076639175
1660273596934214400,0.77721435546875,-0.23457226157188416,0.8191702961921692,0.02382374368607998
1660273596936214300,0.77921435546875,-0.21807889640331268,0.8228355050086975,0.01710422709584236
1660273596938214400,0.78121435546875,-0.18325957655906677,0.8240572214126587,-0.00366519158706069
1660273596940211700,0.783211669921875,-0.13377949595451355,0.7996225953102112,-0.0403171069920063
1660273596942211800,0.7852119140625,-0.13377949595451355,0.7996225953102112,-0.0403171069920063
1660273596944211700,0.787211669921875,-0.10445795953273773,0.7782423496246338,-0.06291911751031876
1660273596946211800,0.7892119140625,-0.07208210229873657,0.7470881938934326,-0.08735372871160507
1660273596948211700,0.791211669921875,-0.059864792972803116,0.7305948138237,-0.09712757170200348
1660273596950211000,0.793211181640625,-0.03237585723400116,0.6908885836601257,-0.11728613078594208
1660273596952211000,0.7952109375,-0.004886921960860491,0.6487388610839844,-0.13439035415649414
1660273596954210800,0.7972109375,0.00733038317412138,0.6261368989944458,-0.14294247329235077
1660273596956211000,0.7992109375,0.02932153269648552,0.5797111392021179,-0.15332718193531036
1660273596958210800,0.8012109375,0.05192354694008827,0.5277875661849976,-0.16249015927314758
1660273596960210700,0.803210693359375,0.059864792972803116,0.5015203952789307,-0.16310101747512817
1660273596962210800,0.8052109375,0.08002334833145142,0.44776421785354614,-0.17043140530586243
1660273596964210700,0.807210693359375,0.09957103431224823,0.39584067463874817,-0.16920967400074005
1660273596966210600,0.80921044921875,0.10751228034496307,0.3683517575263977,-0.1667662113904953
1660273596968210700,0.811210693359375,0.12217304855585098,0.32009339332580566,-0.16432274878025055
1660273596970210600,0.81321044921875,0.13500121235847473,0.27122417092323303,-0.15760323405265808
1660273596972210400,0.81521044921875,0.14233160018920898,0.24923302233219147,-0.15760323405265808
1660273596974210600,0.81721044921875,0.15515977144241333,0.20341812074184418,-0.14905111491680145
1660273596976210400,0.81921044921875,0.15821409225463867,0.1612684279680252,-0.14966198801994324
1660273596978210300,0.821210205078125,0.1661553531885147,0.14294247329235077,-0.14355333149433136
1660273596980209400,0.82320947265625,0.17104226350784302,0.06780604273080826,-0.1368338167667389
1660273596982208800,0.825208740234375,0.17104226350784302,0.06780604273080826,-0.1368338167667389
1660273596984208600,0.827208740234375,0.16859880089759827,0.05009094998240471,-0.13561208546161652
1660273596986208800,0.829208740234375,0.16554448008537292,0.01771509274840355,-0.13500121235847473
1660273596988208600,0.831208740234375,0.16004669666290283,0.003054326167330146,-0.13377949595451355
1660273596990208800,0.833208740234375,0.15393804013729095,-0.022602014243602753,-0.13561208546161652
1660273596992209000,0.835208984375,0.13866640627384186,-0.04459316283464432,-0.1368338167667389
1660273596994208800,0.837208740234375,0.1319468915462494,-0.054367005825042725,-0.13744467496871948
1660273596996209000,0.839208984375,0.11667526513338089,-0.06658431142568588,-0.13927727937698364
1660273596998209000,0.841208984375,0.09651670604944229,-0.07819075137376785,-0.13866640627384186
1660273597000209700,0.843209716796875,0.08185594528913498,-0.07757988572120667,-0.13805554807186127
1660273597002209800,0.845209716796875,0.07147123664617538,-0.0757472887635231,-0.13866640627384186
1660273597004209700,0.847209716796875,0.054367005825042725,-0.0659734457731247,-0.13866640627384186
1660273597006209500,0.84920947265625,0.045204028487205505,-0.059864792972803116,-0.13805554807186127
1660273597008209700,0.851209716796875,0.02871066704392433,-0.039706241339445114,-0.13744467496871948
1660273597010210300,0.853210205078125,0.01160643994808197,-0.014049900695681572,-0.13316862285137177
1660273597012210200,0.855210205078125,0.005497787147760391,0.0024434609804302454,-0.13561208546161652
1660273597014210000,0.8572099609375,-0.00855211354792118,0.033597588539123535,-0.1319468915462494
1660273597016210200,0.859210205078125,-0.019547687843441963,0.07391469180583954,-0.1270599663257599
1660273597018210000,0.8612099609375,-0.02382374368607998,0.09285151958465576,-0.12461651116609573
1660273597020209400,0.86320947265625,-0.04764748737215996,0.2376265823841095,-0.10262536257505417
1660273597022208500,0.86520849609375,-0.04764748737215996,0.2376265823841095,-0.10262536257505417
1660273597024207600,0.86720751953125,-0.05009094998240471,0.2571742534637451,-0.09834930300712585
1660273597026206700,0.869206787109375,-0.05009094998240471,0.2571742534637451,-0.09834930300712585
1660273597028207000,0.87120703125,-0.05192354694008827,0.2773328125476837,-0.09712757170200348
1660273597030207200,0.873207275390625,-0.05375614017248154,0.2974913716316223,-0.08979719132184982
1660273597032207000,0.87520703125,-0.05192354694008827,0.3335324227809906,-0.07819075137376785
1660273597034207500,0.87720751953125,-0.05009094998240471,0.36590829491615295,-0.0659734457731247
1660273597036207400,0.879207275390625,-0.04581489413976669,0.3793473243713379,-0.05864306539297104
1660273597038207500,0.88120751953125,-0.04337143152952194,0.403781920671463,-0.04764748737215996
1660273597040208100,0.8832080078125,-0.039095375686883926,0.4251621961593628,-0.029932396486401558
1660273597042209000,0.885208984375,-0.0354301854968071,0.4355469346046448,-0.025045474991202354
1660273597044209700,0.887209716796875,-0.029932396486401558,0.4502076804637909,-0.00366519158706069
1660273597049015800,0.892015869140625,-0.022602014243602753,0.46853363513946533,0.016493361443281174
1660273597051016000,0.894015869140625,-0.018936822190880775,0.47342056035995483,0.02626720629632473
1660273597053015800,0.896015869140625,-0.01038470957428217,0.48319441080093384,0.04886921867728233
1660273597055015700,0.898015625,0.0012217304902151227,0.494189977645874,0.07452555745840073
1660273597057015800,0.900015869140625,0.004886921960860491,0.4966334402561188,0.08735372871160507
1660273597059015700,0.902015625,0.019547687843441963,0.504574716091156,0.11545353382825851
1660273597061015600,0.904015625,0.02932153269648552,0.5051855444908142,0.14294247329235077
1660273597063015000,0.906014892578125,0.06963863968849182,0.46731191873550415,0.23945917189121246
1660273597065014000,0.908013916015625,0.06963863968849182,0.46731191873550415,0.23945917189121246
1660273597067013000,0.91001318359375,0.06963863968849182,0.46731191873550415,0.23945917189121246
1660273597069012200,0.91201220703125,0.06963863968849182,0.46731191873550415,0.23945917189121246
1660273597071012400,0.914012451171875,0.0757472887635231,0.45814892649650574,0.252287358045578
1660273597073012200,0.91601220703125,0.08552113175392151,0.4386012554168701,0.27550023794174194
1660273597075012000,0.91801220703125,0.09040805697441101,0.42577308416366577,0.2877175211906433
1660273597077013200,0.92001318359375,0.09773843735456467,0.40133845806121826,0.31093040108680725
1660273597079013400,0.922013427734375,0.10690141469240189,0.37629300355911255,0.3335324227809906
1660273597081013200,0.92401318359375,0.11056660860776901,0.3634648323059082,0.34574973583221436
1660273597083014100,0.92601416015625,0.11545353382825851,0.33292156457901,0.36102136969566345
1660273597085014800,0.928014892578125,0.1264491081237793,0.30115658044815063,0.3805690407752991
1660273597087015700,0.930015625,0.12828169763088226,0.2828305959701538,0.3891211748123169
1660273597089016600,0.9320166015625,0.13561208546161652,0.24495697021484375,0.3995058834552765
1660273597091016200,0.93401611328125,0.13805554807186127,0.19975294172763824,0.41172316670417786
1660273597093016300,0.936016357421875,0.14049901068210602,0.17776179313659668,0.41661009192466736
1660273597095016200,0.93801611328125,0.13927727937698364,0.13011430203914642,0.42149701714515686
1660273597097016000,0.94001611328125,0.13988813757896423,0.0806342139840126,0.4288274049758911
1660273597099016200,0.94201611328125,0.14049901068210602,0.056810468435287476,0.4306600093841553
1660273597101016000,0.94401611328125,0.14049901068210602,0.012828170321881771,0.4355469346046448
1660273597103015200,0.94601513671875,0.1258382350206375,-0.1215621829032898,0.4746423065662384
1660273597105014500,0.9480146484375,0.1258382350206375,-0.1215621829032898,0.4746423065662384
1660273597107013000,0.95001318359375,0.12339477986097336,-0.13011430203914642,0.48258355259895325
1660273597109012700,0.9520126953125,0.12339477986097336,-0.13011430203914642,0.48258355259895325
1660273597111011800,0.95401171875,0.12339477986097336,-0.13011430203914642,0.48258355259895325
1660273597113011200,0.95601123046875,0.12217304855585098,-0.13500121235847473,0.48747047781944275
1660273597115011000,0.958010986328125,0.12339477986097336,-0.14477506279945374,0.49357911944389343
1660273597117011000,0.960010986328125,0.1264491081237793,-0.14905111491680145,0.5015203952789307
1660273597119010600,0.962010498046875,0.12767083942890167,-0.15821409225463867,0.5143485069274902
1660273597121010700,0.9640107421875,0.1313360333442688,-0.1618792861700058,0.5253441333770752
1660273597123010600,0.966010498046875,0.13072516024112701,-0.1667662113904953,0.5338962078094482
1660273597125010700,0.9680107421875,0.13866640627384186,-0.1667662113904953,0.5491678714752197
1660273597127004700,0.970004638671875,0.14905111491680145,-0.16310101747512817,0.5638286471366882
1660273597129004500,0.972004638671875,0.15515977144241333,-0.16065755486488342,0.5687155723571777
1660273597131004700,0.974004638671875,0.16432274878025055,-0.15393804013729095,0.5803219676017761
1660273597133004500,0.976004638671875,0.18081611394882202,-0.14416420459747314,0.5931501388549805
1660273597135004700,0.978004638671875,0.18814650177955627,-0.13744467496871948,0.5974262356758118
1660273597137004500,0.980004638671875,0.20036379992961884,-0.12400564551353455,0.6059783101081848
1660273597139004700,0.982004638671875,0.21380282938480377,-0.10323622822761536,0.6151412725448608
1660273597141004500,0.984004638671875,0.22357667982578278,-0.09162978827953339,0.6157521605491638
1660273597143002000,0.986002197265625,0.2431243658065796,-0.0555887371301651,0.6194173693656921
1660273597145002200,0.988002197265625,0.24617868661880493,-0.039706241339445114,0.6206390857696533
1660273597147002400,0.99000244140625,0.25045475363731384,-0.027488935738801956,0.6200281977653503
1660273597149002500,0.99200244140625,0.2590068578720093,0.005497787147760391,0.617584764957428
1660273597151002400,0.99400244140625,0.26939156651496887,0.0354301854968071,0.6102544069290161
1660273597153002500,0.99600244140625,0.27122417092323303,0.051312681287527084,0.608421802520752
1660273597155001900,0.998001953125,0.28038713335990906,0.08246681094169617,0.6010913848876953
1660273597157002000,1.000001953125,0.2834414839744568,0.11301007121801376,0.5900958180427551
1660273597159001900,1.002001953125,0.2877175211906433,0.12767083942890167,0.5845980644226074
1660273597161002000,1.004001953125,0.2938261926174164,0.15577064454555511,0.5742133259773254
1660273597163002000,1.006002197265625,0.2987131178379059,0.17959438264369965,0.5601634383201599
1660273597165002200,1.008002197265625,0.30054569244384766,0.18997909128665924,0.5558874011039734
1660273597167002000,1.010002197265625,0.3078760802745819,0.21013765037059784,0.5412266254425049
1660273597169002200,1.012002197265625,0.3170390725135803,0.22540926933288574,0.5290092825889587
1660273597171002000,1.014002197265625,0.32131510972976685,0.2321287989616394,0.5229006409645081
1660273597173002200,1.016002197265625,0.3286454975605011,0.24068090319633484,0.5082398653030396
1660273597175002000,1.018002197265625,0.3335324227809906,0.24434609711170197,0.4917465150356293
1660273597177002200,1.020002197265625,0.33719760179519653,0.24617868661880493,0.485027015209198
1660273597179002000,1.022002197265625,0.3396410644054413,0.2431243658065796,0.4697553813457489
1660273597181002200,1.024002197265625,0.34758231043815613,0.2321287989616394,0.4550946056842804
1660273597183001300,1.02600146484375,0.35246923565864563,0.1973094791173935,0.42210787534713745
1660273597185000400,1.02800048828125,0.35246923565864563,0.1973094791173935,0.42210787534713745
1660273597187000800,1.030000732421875,0.35613444447517395,0.18448130786418915,0.413555771112442
1660273597189000700,1.032000732421875,0.35735616087913513,0.17287486791610718,0.403781920671463
1660273597191000800,1.034000732421875,0.3579670190811157,0.14049901068210602,0.3885102868080139
1660273597193001000,1.0360009765625,0.3579670190811157,0.10506882518529892,0.3695734739303589
1660273597195000800,1.038000732421875,0.35735616087913513,0.08552113175392151,0.36102136969566345
1660273597197001000,1.0400009765625,0.35552358627319336,0.039706241339445114,0.3390302062034607
1660273597199000600,1.04200048828125,0.3536909818649292,-0.009162978269159794,0.31581732630729675
1660273597201000700,1.044000732421875,0.35124751925468445,-0.03420845419168472,0.3023782968521118
1660273597203001600,1.046001708984375,0.34636059403419495,-0.08735372871160507,0.28038713335990906
1660273597205001500,1.04800146484375,0.34025195240974426,-0.14538592100143433,0.2480112910270691
1660273597207001600,1.050001708984375,0.33597588539123535,-0.17409659922122955,0.23396138846874237
1660273597209001500,1.05200146484375,0.32986724376678467,-0.23090706765651703,0.2076941877603531
1660273597211001000,1.0540009765625,0.3194825351238251,-0.2877175211906433,0.17898350954055786
1660273597213001200,1.056001220703125,0.31520646810531616,-0.31154128909111023,0.16310101747512817
1660273597215001600,1.058001708984375,0.30604347586631775,-0.36102136969566345,0.13255776464939117
1660273597217001700,1.060001708984375,0.294437050819397,-0.4050036668777466,0.1062905490398407
1660273597219001600,1.062001708984375,0.29016098380088806,-0.42577308416366577,0.09468411654233932
1660273597221001700,1.064001708984375,0.27977627515792847,-0.45631635189056396,0.0708603709936142
1660273597223000600,1.06600048828125,0.23640485107898712,-0.5161811113357544,-0.00733038317412138
1660273597225000000,1.068,0.23640485107898712,-0.5161811113357544,-0.00733038317412138
1660273597226999000,1.0699990234375,0.23640485107898712,-0.5161811113357544,-0.00733038317412138
1660273597228998400,1.071998291015625,0.23640485107898712,-0.5161811113357544,-0.00733038317412138
1660273597230998500,1.07399853515625,0.23151792585849762,-0.5155702829360962,-0.018936822190880775
1660273597232998400,1.075998291015625,0.2174680233001709,-0.5149593949317932,-0.036651913076639175
1660273597234998500,1.07799853515625,0.2028072625398636,-0.5070181488990784,-0.05864306539297104
1660273597236998400,1.079998291015625,0.19486601650714874,-0.5015203952789307,-0.06475171446800232
1660273597238998500,1.08199853515625,0.17531833052635193,-0.4856378734111786,-0.08735372871160507
1660273597240998400,1.083998291015625,0.1569923609495163,-0.4703662395477295,-0.10934487730264664
1660273597242999300,1.085999267578125,0.1472185254096985,-0.4605923891067505,-0.12278391420841217
1660273597245000200,1.088000244140625,0.1258382350206375,-0.44287729263305664,-0.14416420459747314
1660273597247000300,1.090000244140625,0.10262536257505417,-0.423329621553421,-0.16982053220272064
1660273597249000200,1.092000244140625,0.09162978827953339,-0.4147774875164032,-0.18387043476104736
1660273597251000300,1.094000244140625,0.06780604273080826,-0.39767327904701233,-0.21319197118282318
1660273597253000200,1.096000244140625,0.04459316283464432,-0.3787364661693573,-0.24190263450145721
1660273597255000000,1.098,0.03237585723400116,-0.36651915311813354,-0.252287358045578
1660273597257000200,1.100000244140625,0.004886921960860491,-0.34697145223617554,-0.2822197377681732
1660273597259000300,1.102000244140625,-0.013439035043120384,-0.3286454975605011,-0.31154128909111023
1660273597261000400,1.10400048828125,-0.02687807008624077,-0.3219259977340698,-0.32498031854629517
1660273597262999600,1.10599951171875,-0.11545353382825851,-0.2834414839744568,-0.4251621961593628
1660273597264998700,1.10799853515625,-0.11545353382825851,-0.2834414839744568,-0.4251621961593628
1660273597266997800,1.109997802734375,-0.11545353382825851,-0.2834414839744568,-0.4251621961593628
1660273597268996900,1.111996826171875,-0.11545353382825851,-0.2834414839744568,-0.4251621961593628
1660273597270997200,1.113997314453125,-0.12461651116609573,-0.27977627515792847,-0.43615779280662537
1660273597272996600,1.11599658203125,-0.13377949595451355,-0.28099802136421204,-0.44715335965156555
1660273597274996700,1.117996826171875,-0.1508837193250656,-0.2773328125476837,-0.4697553813457489
1660273597276996600,1.11999658203125,-0.16798794269561768,-0.2791654169559479,-0.4893030524253845
1660273597278996700,1.121996826171875,-0.17531833052635193,-0.2791654169559479,-0.49846604466438293
1660273597280996900,1.123996826171875,-0.19120082259178162,-0.2822197377681732,-0.5174028873443604
1660273597282997800,1.125997802734375,-0.20525072515010834,-0.2822197377681732,-0.5351179838180542
1660273597284998400,1.127998291015625,-0.20830504596233368,-0.2840523421764374,-0.5424483418464661
1660273597286999000,1.1299990234375,-0.21807889640331268,-0.2919935882091522,-0.5571091175079346
1660273597289000000,1.132,-0.22846360504627228,-0.2938261926174164,-0.5681046843528748
1660273597290999800,1.133999755859375,-0.2321287989616394,-0.2974913716316223,-0.5736024379730225
1660273597293000000,1.136,-0.2376265823841095,-0.2993239760398865,-0.5766568183898926
1660273597294999300,1.137999267578125,-0.242513507604599,-0.2987131178379059,-0.5803219676017761
1660273597296999400,1.13999951171875,-0.2431243658065796,-0.29993483424186707,-0.578489363193512
1660273597298999300,1.141999267578125,-0.24678955972194672,-0.2981022298336029,-0.5736024379730225
1660273597300999400,1.14399951171875,-0.2431243658065796,-0.2926044464111328,-0.5662720799446106
1660273597302998500,1.14599853515625,-0.2272418737411499,-0.2822197377681732,-0.5112941861152649
1660273597304998000,1.147997802734375,-0.2223549485206604,-0.2834414839744568,-0.5027421116828918
1660273597306997000,1.1499970703125,-0.21868975460529327,-0.28466320037841797,-0.4911356568336487
1660273597308996000,1.15199609375,-0.21868975460529327,-0.28466320037841797,-0.4911356568336487
1660273597310995200,1.1539951171875,-0.21868975460529327,-0.28466320037841797,-0.4911356568336487
1660273597312994600,1.15599462890625,-0.21868975460529327,-0.28466320037841797,-0.4911356568336487
1660273597314994400,1.157994384765625,-0.21441370248794556,-0.2877175211906433,-0.485027015209198
1660273597316994600,1.15999462890625,-0.2076941877603531,-0.2926044464111328,-0.4660901725292206
1660273597318994000,1.161993896484375,-0.19853121042251587,-0.30054569244384766,-0.4502076804637909
1660273597320994000,1.163994140625,-0.19364428520202637,-0.30543261766433716,-0.44287729263305664
1660273597322994000,1.165993896484375,-0.18997909128665924,-0.31642818450927734,-0.42577308416366577
1660273597324981000,1.16798095703125,-0.17776179313659668,-0.32498031854629517,-0.41172316670417786
1660273597326981000,1.169981201171875,-0.17470745742321014,-0.3237585723400116,-0.4056145250797272
1660273597328981000,1.17198095703125,-0.16737708449363708,-0.32986724376678467,-0.394008070230484
1660273597330981000,1.173981201171875,-0.16249015927314758,-0.33047810196876526,-0.38606682419776917
1660273597332981000,1.17598095703125,-0.15821409225463867,-0.33047810196876526,-0.3830125033855438
1660273597334981000,1.177981201171875,-0.15393804013729095,-0.3280346393585205,-0.3799581825733185
1660273597336980200,1.179980224609375,-0.1508837193250656,-0.32070425152778625,-0.3793473243713379
1660273597338978600,1.181978515625,-0.152105450630188,-0.3176499307155609,-0.3793473243713379
1660273597340978700,1.183978759765625,-0.15393804013729095,-0.3127630054950714,-0.38606682419776917
1660273597342976000,1.18597607421875,-0.16249015927314758,-0.2968805134296417,-0.4001167416572571
1660273597344976100,1.18797607421875,-0.16249015927314758,-0.2968805134296417,-0.4001167416572571
1660273597346976300,1.189976318359375,-0.17287486791610718,-0.28527405858039856,-0.41233405470848083
1660273597348976000,1.19197607421875,-0.18387043476104736,-0.27061331272125244,-0.42699480056762695
1660273597350975700,1.193975830078125,-0.192422553896904,-0.2620611786842346,-0.4306600093841553
1660273597352975600,1.1959755859375,-0.21013765037059784,-0.2431243658065796,-0.44165557622909546
1660273597354975700,1.197975830078125,-0.23029619455337524,-0.2174680233001709,-0.45204028487205505
1660273597356975900,1.199975830078125,-0.242513507604599,-0.20402899384498596,-0.45692721009254456
1660273597358976000,1.20197607421875,-0.26450464129447937,-0.17592918872833252,-0.4612032473087311
1660273597360976000,1.203975830078125,-0.2877175211906433,-0.14355333149433136,-0.4648684561252594
1660273597362976000,1.20597607421875,-0.3029891550540924,-0.1258382350206375,-0.4660901725292206
1660273597364975900,1.207975830078125,-0.3286454975605011,-0.09040805697441101,-0.4599815309047699
1660273597366976000,1.20997607421875,-0.35124751925468445,-0.0507018156349659,-0.4502076804637909
1660273597368975400,1.211975341796875,-0.36651915311813354,-0.03176499158143997,-0.4434881806373596
1660273597370975500,1.2139755859375,-0.3903428912162781,0.014049900695681572,-0.42760565876960754
1660273597372975400,1.215975341796875,-0.4129449129104614,0.06108652427792549,-0.40683624148368835
1660273597374975500,1.2179755859375,-0.4251621961593628,0.0861319974064827,-0.394618958234787
1660273597376975400,1.219975341796875,-0.4440990388393402,0.13439035415649414,-0.36529740691185
1660273597378975500,1.2219755859375,-0.4612032473087311,0.17959438264369965,-0.33047810196876526
1660273597380975600,1.2239755859375,-0.46731191873550415,0.20097467303276062,-0.3121521472930908
1660273597382974700,1.225974609375,-0.4856378734111786,0.2718350291252136,-0.22846360504627228
1660273597384974300,1.227974365234375,-0.4856378734111786,0.2718350291252136,-0.22846360504627228
1660273597386974200,1.22997412109375,-0.4862487316131592,0.2877175211906433,-0.2070833146572113
1660273597388974600,1.231974609375,-0.4899139404296875,0.3078760802745819,-0.15943582355976105
1660273597390973700,1.2339736328125,-0.4856378734111786,0.31642818450927734,-0.13500121235847473
1660273597392973800,1.235973876953125,-0.48380526900291443,0.3280346393585205,-0.0861319974064827
1660273597394973700,1.2379736328125,-0.47219884395599365,0.3341432809829712,-0.03726277872920036
1660273597396974000,1.23997412109375,-0.45631635189056396,0.33658674359321594,0.00855211354792118
1660273597398974500,1.241974365234375,-0.4447098970413208,0.3384193480014801,0.03298672288656235
1660273597400974300,1.243974365234375,-0.42271876335144043,0.3335324227809906,0.07757988572120667
1660273597402976000,1.24597607421875,-0.3952298164367676,0.3225368559360504,0.11728613078594208
1660273597404975900,1.247975830078125,-0.38240164518356323,0.3139847218990326,0.13500121235847473
1660273597406976000,1.24997607421875,-0.35246923565864563,0.2938261926174164,0.16493362188339233
1660273597408976000,1.251975830078125,-0.323147714138031,0.26633724570274353,0.18875735998153687
1660273597410976000,1.25397607421875,-0.3078760802745819,0.24862214922904968,0.1966986060142517
1660273597412976000,1.25597607421875,-0.27977627515792847,0.21380282938480377,0.20830504596233368
1660273597414975700,1.257975830078125,-0.251676470041275,0.1667662113904953,0.20830504596233368
1660273597416976000,1.259975830078125,-0.23945917189121246,0.14049901068210602,0.2064724564552307
1660273597418975700,1.261975830078125,-0.21319197118282318,0.08002334833145142,0.1966986060142517
1660273597420975600,1.2639755859375,-0.19058994948863983,0.01771509274840355,0.1716531366109848
1660273597422974700,1.265974609375,-0.12950342893600464,-0.21013765037059784,0.030543262138962746
1660273597424974000,1.26797412109375,-0.12950342893600464,-0.21013765037059784,0.030543262138962746
1660273597426973200,1.26997314453125,-0.12950342893600464,-0.21013765037059784,0.030543262138962746
1660273597428972800,1.271972900390625,-0.12950342893600464,-0.21013765037059784,0.030543262138962746
1660273597430972700,1.27397265625,-0.12461651116609573,-0.242513507604599,0.001832595793530345
1660273597432972800,1.275972900390625,-0.11545353382825851,-0.3090978264808655,-0.05619960278272629
1660273597434973000,1.277972900390625,-0.10934487730264664,-0.34147366881370544,-0.08491026610136032
1660273597436972800,1.279972900390625,-0.10262536257505417,-0.40133845806121826,-0.14905111491680145
1660273597438973000,1.281972900390625,-0.09896016865968704,-0.45753806829452515,-0.21380282938480377
1660273597440972800,1.283972900390625,-0.09957103431224823,-0.48380526900291443,-0.2480112910270691
1660273597442973700,1.2859736328125,-0.09834930300712585,-0.5326744914054871,-0.3127630054950714
1660273597444974300,1.287974365234375,-0.09957103431224823,-0.5791002511978149,-0.3799581825733185
1660273597446974500,1.289974365234375,-0.10018189996480942,-0.6010913848876953,-0.41111230850219727
1660273597448974000,1.29197412109375,-0.10201449692249298,-0.637132465839386,-0.47342056035995483
1660273597450975000,1.29397509765625,-0.10384709388017654,-0.6695083379745483,-0.5345070958137512
1660273597452975000,1.29597509765625,-0.1062905490398407,-0.6878342628479004,-0.5595525503158569
1660273597454975000,1.29797509765625,-0.11056660860776901,-0.7073819637298584,-0.6133087277412415
1660273597456975000,1.29997509765625,-0.11301007121801376,-0.7287622094154358,-0.6591235995292664
1660273597458975000,1.30197509765625,-0.11545353382825851,-0.7354817390441895,-0.6817256212234497
1660273597460975000,1.30397509765625,-0.12034045159816742,-0.7483099102973938,-0.7226535677909851
1660273597462973400,1.305973388671875,-0.15332718193531036,-0.7153232097625732,-0.8118399381637573
1660273597464972800,1.307972900390625,-0.15577064454555511,-0.7012733221054077,-0.8161159753799438
1660273597466972000,1.309971923828125,-0.16065755486488342,-0.684779942035675,-0.817337691783905
1660273597468971000,1.311970947265625,-0.16065755486488342,-0.684779942035675,-0.817337691783905
1660273597470970000,1.31397021484375,-0.16065755486488342,-0.684779942035675,-0.817337691783905
1660273597472969200,1.31596923828125,-0.16065755486488342,-0.684779942035675,-0.817337691783905
1660273597474969600,1.317969482421875,-0.17348572611808777,-0.645684540271759,-0.8118399381637573
1660273597476969700,1.3199697265625,-0.1771509200334549,-0.6206390857696533,-0.8063421249389648
1660273597478969300,1.32196923828125,-0.19120082259178162,-0.5662720799446106,-0.7849618196487427
1660273597480969500,1.323969482421875,-0.20402899384498596,-0.503963828086853,-0.7519751191139221
1660273597482943500,1.325943603515625,-0.20830504596233368,-0.4697553813457489,-0.7367035150527954
1660273597484957400,1.32795751953125,-0.22418753802776337,-0.40194934606552124,-0.6902777552604675
1660273597486970400,1.329970458984375,-0.23090706765651703,-0.33475416898727417,-0.6444628238677979
1660273597488979200,1.331979248046875,-0.24007004499435425,-0.2993239760398865,-0.6151412725448608
1660273597490985700,1.33398583984375,-0.24984388053417206,-0.23396138846874237,-0.5577199459075928
1660273597492990700,1.33599072265625,-0.25473082065582275,-0.2015855312347412,-0.5296201705932617
1660273597494995200,1.3379951171875,-0.2669481039047241,-0.14416420459747314,-0.4642575979232788
1660273597496999000,1.3399990234375,-0.2742784917354584,-0.08918632566928864,-0.40133845806121826
1660273597499002000,1.342002197265625,-0.2767219543457031,-0.06352998316287994,-0.37201693654060364
1660273597501005000,1.344005126953125,-0.2822197377681732,-0.02076941914856434,-0.30482175946235657
1660273597503005200,1.346005126953125,-0.3017674386501312,0.10445795953273773,-0.07391469180583954
1660273597505005300,1.34800537109375,-0.3029891550540924,0.11362093687057495,-0.05253441259264946
1660273597507005200,1.350005126953125,-0.3029891550540924,0.12217304855585098,-0.02871066704392433
1660273597509005300,1.35200537109375,-0.3029891550540924,0.12217304855585098,-0.02871066704392433
1660273597511005700,1.354005615234375,-0.3029891550540924,0.12217304855585098,-0.02871066704392433
1660273597513007900,1.3560078125,-0.3029891550540924,0.12217304855585098,-0.02871066704392433
1660273597515010300,1.35801025390625,-0.303600013256073,0.1270599663257599,0.00855211354792118
1660273597517012000,1.360011962890625,-0.3023782968521118,0.12828169763088226,0.024434609338641167
1660273597519013400,1.362013427734375,-0.2981022298336029,0.12217304855585098,0.05192354694008827
1660273597521014800,1.364014892578125,-0.2968805134296417,0.1111774742603302,0.07452555745840073
1660273597523014700,1.3660146484375,-0.2932153046131134,0.10201449692249298,0.08185594528913498
1660273597525014800,1.368014892578125,-0.2840523421764374,0.08246681094169617,0.09162978827953339
1660273597527008800,1.3700087890625,-0.27550023794174194,0.060475658625364304,0.0959058403968811
1660273597529008600,1.372008544921875,-0.2681698501110077,0.04703662544488907,0.09651670604944229
1660273597531009500,1.374009521484375,-0.25595253705978394,0.022602014243602753,0.09529497474431992
1660273597533009400,1.376009521484375,-0.242513507604599,-0.00427605677396059,0.08857546001672745
1660273597535009800,1.378009765625,-0.23579397797584534,-0.01466076634824276,0.08307767659425735
1660273597537010000,1.380010009765625,-0.2217440903186798,-0.0403171069920063,0.07269296050071716
1660273597539010000,1.382010009765625,-0.20586158335208893,-0.060475658625364304,0.056810468435287476
1660273597541010200,1.38401025390625,-0.19792033731937408,-0.07147123664617538,0.048258353024721146
1660273597543007500,1.386007568359375,-0.17776179313659668,-0.1014036312699318,0.019547687843441963
1660273597545007600,1.388007568359375,-0.16859880089759827,-0.10873401165008545,0.006719517521560192
1660273597547007700,1.3900078125,-0.15943582355976105,-0.11728613078594208,-0.00427605677396059
1660273597549008000,1.3920078125,-0.14355333149433136,-0.1313360333442688,-0.02321287989616394
1660273597551007700,1.3940078125,-0.12400564551353455,-0.14477506279945374,-0.04581489413976669
1660273597553007900,1.3960078125,-0.1160643994808197,-0.14966198801994324,-0.056810468435287476
1660273597555007700,1.3980078125,-0.10262536257505417,-0.15943582355976105,-0.0757472887635231
1660273597557008000,1.4000078125,-0.08185594528913498,-0.16859880089759827,-0.09346238523721695
1660273597559007700,1.4020078125,-0.07452555745840073,-0.1716531366109848,-0.1014036312699318
1660273597561007900,1.4040078125,-0.05619960278272629,-0.17959438264369965,-0.11789698898792267
1660273597563007700,1.4060078125,-0.0403171069920063,-0.182648703455925,-0.13377949595451355
1660273597565008000,1.4080078125,-0.03420845419168472,-0.18509216606616974,-0.13561208546161652
1660273597567007700,1.4100078125,-0.016493361443281174,-0.1875356286764145,-0.1466076523065567
1660273597569007900,1.4120078125,-0.00366519158706069,-0.18997909128665924,-0.15821409225463867
1660273597571007200,1.41400732421875,0.0012217304902151227,-0.18631389737129211,-0.16065755486488342
1660273597573007400,1.41600732421875,0.013439035043120384,-0.18509216606616974,-0.16432274878025055
1660273597575007200,1.41800732421875,0.02382374368607998,-0.1765400618314743,-0.16798794269561768
1660273597577006800,1.4200068359375,0.02871066704392433,-0.17409659922122955,-0.16798794269561768
1660273597579007000,1.422007080078125,0.033597588539123535,-0.1667662113904953,-0.16737708449363708
1660273597581007000,1.424007080078125,0.039706241339445114,-0.15760323405265808,-0.16432274878025055
1660273597583006200,1.426006103515625,0.04337143152952194,-0.13866640627384186,-0.152105450630188
1660273597585005300,1.42800537109375,0.04337143152952194,-0.13866640627384186,-0.152105450630188
1660273597587005700,1.430005615234375,0.04337143152952194,-0.1319468915462494,-0.14905111491680145
1660273597589005800,1.432005859375,0.04337143152952194,-0.12767083942890167,-0.1459967941045761
1660273597591005700,1.434005615234375,0.04337143152952194,-0.11728613078594208,-0.13744467496871948
1660273597593005800,1.436005859375,0.04153883829712868,-0.1111774742603302,-0.13011430203914642
1660273597595005700,1.438005615234375,0.039706241339445114,-0.10567969083786011,-0.12461651116609573
1660273597597005800,1.440005859375,0.039095375686883926,-0.0959058403968811,-0.11484266817569733
1660273597599005700,1.442005615234375,0.036041051149368286,-0.08552113175392151,-0.10445795953273773
1660273597601005600,1.444005615234375,0.03481931984424591,-0.08185594528913498,-0.09896016865968704
1660273597603006500,1.44600634765625,0.03237585723400116,-0.0708603709936142,-0.08552113175392151
1660273597605006300,1.44800634765625,0.031154127791523933,-0.06291911751031876,-0.07635815441608429
1660273597607006500,1.45000634765625,0.02871066704392433,-0.05619960278272629,-0.06902777403593063
1660273597609006300,1.45200634765625,0.025045474991202354,-0.04459316283464432,-0.05497787147760391
1660273597611006500,1.45400634765625,0.02321287989616394,-0.03481931984424591,-0.036041051149368286
1660273597613006800,1.4560068359375,0.019547687843441963,-0.030543262138962746,-0.030543262138962746
1660273597615006700,1.4580068359375,0.015271631069481373,-0.021991148591041565,-0.013439035043120384
1660273597617007600,1.460007568359375,0.01038470957428217,-0.01710422709584236,0.00427605677396059
1660273597619007700,1.4620078125,0.00855211354792118,-0.015271631069481373,0.010995574295520782
1660273597621007600,1.464007568359375,-0.0006108652451075613,-0.01038470957428217,0.031154127791523933
1660273597623007000,1.466007080078125,-0.029932396486401558,0.006108652334660292,0.10506882518529892
1660273597625006000,1.468006103515625,-0.029932396486401558,0.006108652334660292,0.10506882518529892
1660273597627005200,1.470005126953125,-0.029932396486401558,0.006108652334660292,0.10506882518529892
1660273597629004300,1.47200439453125,-0.029932396486401558,0.006108652334660292,0.10506882518529892
1660273597631004700,1.474004638671875,-0.03481931984424591,0.01038470957428217,0.11484266817569733
1660273597633004800,1.4760048828125,-0.04948008432984352,0.01466076634824276,0.13561208546161652
1660273597635004700,1.478004638671875,-0.06169738993048668,0.022602014243602753,0.15821409225463867
1660273597637005000,1.480005126953125,-0.06963863968849182,0.029932396486401558,0.16982053220272064
1660273597639005000,1.4820048828125,-0.08735372871160507,0.03787364438176155,0.18875735998153687
1660273597641005000,1.484005126953125,-0.1007927656173706,0.04459316283464432,0.2076941877603531
1660273597643006000,1.486005859375,-0.10690141469240189,0.04886921867728233,0.21807889640331268
1660273597645006600,1.488006591796875,-0.12400564551353455,0.05742133408784866,0.23457226157188416
1660273597647006700,1.4900068359375,-0.13927727937698364,0.06963863968849182,0.2528982162475586
1660273597649006600,1.492006591796875,-0.14477506279945374,0.07757988572120667,0.2590068578720093
1660273597651006500,1.49400634765625,-0.16004669666290283,0.0910189226269722,0.27488934993743896
1660273597653006600,1.496006591796875,-0.17287486791610718,0.10567969083786011,0.294437050819397
1660273597655006500,1.49800634765625,-0.1771509200334549,0.11728613078594208,0.30482175946235657
1660273597657006600,1.500006591796875,-0.18875735998153687,0.13439035415649414,0.32131510972976685
1660273597659006500,1.50200634765625,-0.19547687470912933,0.15393804013729095,0.34086281061172485
1660273597661006600,1.504006591796875,-0.20036379992961884,0.16493362188339233,0.3530801236629486
1660273597663005700,1.506005615234375,-0.20952677726745605,0.2669481039047241,0.4789183437824249
1660273597665004800,1.5080048828125,-0.20830504596233368,0.2828305959701538,0.4954117238521576
1660273597667004200,1.510004150390625,-0.20830504596233368,0.2828305959701538,0.4954117238521576
1660273597669003300,1.512003173828125,-0.20830504596233368,0.2828305959701538,0.4954117238521576
1660273597671002400,1.51400244140625,-0.20525072515010834,0.294437050819397,0.513126790523529
1660273597673001200,1.516001220703125,-0.20525072515010834,0.294437050819397,0.513126790523529
1660273597675001000,1.5180009765625,-0.20463985204696655,0.3072652220726013,0.53328537940979
1660273597677000200,1.520000244140625,-0.1966986060142517,0.3323107063770294,0.5674937963485718
1660273597679000300,1.522000244140625,-0.19303341209888458,0.34758231043815613,0.5864306092262268
1660273597681000200,1.524000244140625,-0.18936823308467865,0.37690386176109314,0.6279694437980652
1660273597683014100,1.52601416015625,-0.18448130786418915,0.4031710624694824,0.6646214127540588
1660273597685000200,1.528000244140625,-0.182648703455925,0.4190535545349121,0.6835582256317139
1660273597686993200,1.5299931640625,-0.1765400618314743,0.44654250144958496,0.7195992469787598
1660273597688988400,1.531988525390625,-0.16982053220272064,0.47342056035995483,0.7507534027099609
1660273597690985200,1.533985107421875,-0.16859880089759827,0.48869219422340393,0.7672467231750488
1660273597692982800,1.535982666015625,-0.15821409225463867,0.5155702829360962,0.8008443117141724
1660273597694980600,1.537980712890625,-0.15760323405265808,0.543059229850769,0.8258898258209229
1660273597696978700,1.539978759765625,-0.15515977144241333,0.5558874011039734,0.8411614298820496
1660273597698977000,1.54197705078125,-0.15271630883216858,0.5839871764183044,0.8674286603927612
1660273597700975600,1.5439755859375,-0.1459967941045761,0.6114761233329773,0.8918632864952087
1660273597702971600,1.5459716796875,-0.1319468915462494,0.6988298296928406,0.9822713136672974
1660273597704968200,1.54796826171875,-0.13072516024112701,0.7037167549133301,0.9920451641082764
1660273597706964700,1.54996484375,-0.13072516024112701,0.7055493593215942,1.0005972385406494
1660273597708961800,1.5519619140625,-0.13072516024112701,0.7055493593215942,1.0005972385406494
1660273597710961200,1.553961181640625,-0.13072516024112701,0.7055493593215942,1.0005972385406494
1660273597712958500,1.55595849609375,-0.13072516024112701,0.7055493593215942,1.0005972385406494
1660273597714957600,1.55795751953125,-0.12461651116609573,0.7086036801338196,1.007927656173706
1660273597716956700,1.559956787109375,-0.12339477986097336,0.7086036801338196,1.0286970138549805
1660273597718956000,1.5619560546875,-0.12217304855585098,0.7049384713172913,1.045190453529358
1660273597720955100,1.563955078125,-0.1215621829032898,0.7006624341011047,1.053742527961731
1660273597722955300,1.565955322265625,-0.1215621829032898,0.6890559792518616,1.0726794004440308
1660273597724955100,1.567955078125,-0.11850785464048386,0.6725626587867737,1.0922271013259888
1660273597726955300,1.569955322265625,-0.11850785464048386,0.6633996367454529,1.1062769889831543
1660273597728955100,1.571955078125,-0.11667526513338089,0.646906316280365,1.1301007270812988
1660273597730955300,1.573955322265625,-0.11972958594560623,0.6285803318023682,1.1575896739959717
1660273597732953000,1.575953125,-0.11789698898792267,0.617584764957428,1.1716395616531372
1660273597734953200,1.577953125,-0.11484266817569733,0.59803706407547,1.2064588069915771
1660273597736953300,1.579953369140625,-0.11178833991289139,0.5797111392021179,1.2424999475479126
1660273597738953500,1.581953369140625,-0.1111774742603302,0.5723807215690613,1.2614367008209229
1660273597740953600,1.58395361328125,-0.10567969083786011,0.5577199459075928,1.303586483001709
1660273597742951200,1.585951171875,-0.09834930300712585,0.5436700582504272,1.368949055671692
1660273597744951000,1.587950927734375,-0.09834930300712585,0.5436700582504272,1.368949055671692
1660273597746951200,1.589951171875,-0.08979719132184982,0.5351179838180542,1.4172073602676392
1660273597748951300,1.591951416015625,-0.08185594528913498,0.5290092825889587,1.4636331796646118
1660273597750951400,1.593951416015625,-0.07696902006864548,0.523511528968811,1.4886785745620728
1660273597752950500,1.595950439453125,-0.06719517707824707,0.5204572081565857,1.5326608419418335
1660273597754950700,1.59795068359375,-0.05803219974040985,0.5076290369033813,1.5754214525222778
1660273597756950500,1.599950439453125,-0.054367005825042725,0.50335294008255,1.5943583250045776
1660273597758950700,1.60195068359375,-0.04153883829712868,0.49296826124191284,1.6316211223602295
1660273597760950500,1.603950439453125,-0.028099801391363144,0.47769662737846375,1.660942554473877
1660273597762950000,1.605949951171875,-0.02321287989616394,0.46547931432724,1.6743816137313843
1660273597764950000,1.607949951171875,-0.009162978269159794,0.4398229718208313,1.6927075386047363
1660273597766950000,1.609949951171875,0.006719517521560192,0.40683624148368835,1.7006487846374512
1660273597768950000,1.611949951171875,0.01771509274840355,0.3878994286060333,1.7018705606460571
1660273597770950100,1.6139501953125,0.03787364438176155,0.34513887763023376,1.6945401430130005
1660273597772950000,1.615949951171875,0.059864792972803116,0.29016098380088806,1.6786576509475708
1660273597774950100,1.6179501953125,0.07147123664617538,0.26450464129447937,1.6646077632904053
1660273597776950300,1.6199501953125,0.09651670604944229,0.19853121042251587,1.6267341375350952
1660273597778950100,1.6219501953125,0.1215621829032898,0.12828169763088226,1.5839735269546509
1660273597780950300,1.6239501953125,0.1313360333442688,0.08979719132184982,1.5540411472320557
1660273597782949400,1.625949462890625,0.17531833052635193,-0.06536258012056351,1.416596531867981
1660273597784948500,1.627948486328125,0.17531833052635193,-0.06536258012056351,1.416596531867981
1660273597786948600,1.629948486328125,0.18509216606616974,-0.09957103431224823,1.3744467496871948
1660273597788948500,1.631948486328125,0.19853121042251587,-0.17287486791610718,1.2870930433273315
1660273597790948600,1.633948486328125,0.2076941877603531,-0.2370157092809677,1.1899654865264893
1660273597792949000,1.635948974609375,0.2125810980796814,-0.26633724570274353,1.1398745775222778
1660273597794948900,1.637948974609375,0.2217440903186798,-0.3219259977340698,1.035416603088379
1660273597796948700,1.63994873046875,0.22418753802776337,-0.36529740691185,0.9193521738052368
1660273597798948900,1.641948974609375,0.22540926933288574,-0.3830125033855438,0.8588765263557434
1660273597800948700,1.64394873046875,0.22357667982578278,-0.4105014503002167,0.7458664774894714
1660273597802949600,1.64594970703125,0.2217440903186798,-0.42577308416366577,0.6298020482063293
1660273597804949500,1.647949462890625,0.21991148591041565,-0.4294382631778717,0.5711590051651001
1660273597806949600,1.64994970703125,0.21380282938480377,-0.4245513379573822,0.45753806829452515
1660273597808949500,1.651949462890625,0.21013765037059784,-0.41172316670417786,0.35674530267715454
1660273597810950100,1.6539501953125,0.2076941877603531,-0.40072759985923767,0.3072652220726013
1660273597812950500,1.655950439453125,0.20341812074184418,-0.3689626157283783,0.21135938167572021
1660273597814950400,1.657950439453125,0.19608774781227112,-0.33047810196876526,0.1264491081237793
1660273597816950500,1.659950439453125,0.19303341209888458,-0.31154128909111023,0.08796459436416626
1660273597818950700,1.66195068359375,0.18814650177955627,-0.26450464129447937,0.01466076634824276
1660273597820950500,1.663950439453125,0.1814269721508026,-0.2168571650981903,-0.04764748737215996
1660273597822950100,1.6659501953125,0.16249015927314758,-0.051312681287527084,-0.2125810980796814
1660273597824949200,1.66794921875,0.16249015927314758,-0.051312681287527084,-0.2125810980796814
1660273597826948400,1.6699482421875,0.16249015927314758,-0.051312681287527084,-0.2125810980796814
1660273597828947700,1.67194775390625,0.16249015927314758,-0.051312681287527084,-0.2125810980796814
1660273597830947600,1.673947509765625,0.16004669666290283,-0.036041051149368286,-0.23457226157188416
1660273597832947500,1.675947509765625,0.14966198801994324,-0.006108652334660292,-0.27122417092323303
1660273597834947600,1.677947509765625,0.14477506279945374,0.00733038317412138,-0.29077184200286865
1660273597836947500,1.679947509765625,0.1362229436635971,0.02321287989616394,-0.3292563557624817
1660273597838947300,1.681947265625,0.1264491081237793,0.0354301854968071,-0.3689626157283783
1660273597840947500,1.683947509765625,0.12217304855585098,0.03787364438176155,-0.3891211748123169
1660273597842948000,1.685947998046875,0.11362093687057495,0.0403171069920063,-0.43249258399009705
1660273597844949000,1.687948974609375,0.10262536257505417,0.04153883829712868,-0.47830748558044434
1660273597846949000,1.68994921875,0.09834930300712585,0.04459316283464432,-0.5015203952789307
1660273597848949200,1.69194921875,0.08857546001672745,0.04642575979232788,-0.5558874011039734
1660273597850949000,1.69394921875,0.07757988572120667,0.04948008432984352,-0.6065891981124878
1660273597852949200,1.69594921875,0.07391469180583954,0.05619960278272629,-0.6346889734268188
1660273597854950100,1.6979501953125,0.06475171446800232,0.06841690838336945,-0.6914994716644287
1660273597856950300,1.6999501953125,0.054367005825042725,0.0861319974064827,-0.7476990818977356
1660273597858950100,1.7019501953125,0.05253441259264946,0.09712757170200348,-0.7776314616203308
1660273597860950000,1.703949951171875,0.04337143152952194,0.12461651116609573,-0.8326093554496765
1660273597862949000,1.70594921875,0.015882495790719986,0.2889392673969269,-0.9841039180755615
1660273597864948500,1.707948486328125,0.01160643994808197,0.31642818450927734,-0.998153805732727
1660273597866947600,1.709947509765625,0.01160643994808197,0.31642818450927734,-0.998153805732727
1660273597868946700,1.71194677734375,0.01160643994808197,0.31642818450927734,-0.998153805732727
1660273597870945000,1.713945068359375,0.01160643994808197,0.31642818450927734,-0.998153805732727
1660273597872945200,1.715945068359375,0.004886921960860491,0.38117989897727966,-1.0225883722305298
1660273597874945000,1.717945068359375,0,0.45326200127601624,-1.0348057746887207
1660273597876945200,1.719945068359375,-0.004886921960860491,0.48869219422340393,-1.036027431488037
1660273597878945000,1.721945068359375,-0.010995574295520782,0.5613851547241211,-1.0366383790969849
1660273597880945000,1.72394482421875,-0.01771509274840355,0.6352998614311218,-1.0280861854553223
1660273597882945500,1.725945556640625,-0.02015855349600315,0.6743952035903931,-1.0195341110229492
1660273597884946400,1.727946533203125,-0.02382374368607998,0.7464773058891296,-0.99876469373703
1660273597886947300,1.729947265625,-0.025045474991202354,0.8155050873756409,-0.9682214260101318
1660273597888948200,1.7319482421875,-0.025045474991202354,0.846659243106842,-0.9511171579360962
1660273597890948000,1.733947998046875,-0.019547687843441963,0.9034696817398071,-0.911410927772522
1660273597892948200,1.7359482421875,-0.012828170321881771,0.9541715383529663,-0.8680394887924194
1660273597894948000,1.737947998046875,-0.007941247895359993,0.9755517840385437,-0.8448266386985779
1660273597896948200,1.7399482421875,0.009162978269159794,1.0140362977981567,-0.7941248416900635
1660273597898949400,1.741949462890625,0.02687807008624077,1.0464121103286743,-0.7385360598564148
1660273597900949200,1.74394921875,0.03787364438176155,1.0592403411865234,-0.7128797173500061
1660273597902948600,1.745948486328125,0.1563815027475357,1.1264355182647705,-0.4648684561252594
1660273597904947700,1.74794775390625,0.1563815027475357,1.1264355182647705,-0.4648684561252594
1660273597906946800,1.74994677734375,0.16982053220272064,1.1325441598892212,-0.4398229718208313
1660273597908946000,1.75194580078125,0.16982053220272064,1.1325441598892212,-0.4398229718208313
1660273597910945000,1.753945068359375,0.16982053220272064,1.140485405921936,-0.41661009192466736
1660273597912944000,1.755944091796875,0.18325957655906677,1.140485405921936,-0.41661009192466736
1660273597914943200,1.757943115234375,0.19914206862449646,1.1459832191467285,-0.3933972120285034
1660273597916943600,1.759943603515625,0.22663100063800812,1.150259256362915,-0.3481931984424591
1660273597918943500,1.761943603515625,0.24129177629947662,1.149037480354309,-0.3280346393585205
1660273597920943900,1.76394384765625,0.2718350291252136,1.147204875946045,-0.2919935882091522
1660273597922943700,1.76594384765625,0.30482175946235657,1.1368201971054077,-0.25961771607398987
1660273597924945000,1.76794482421875,0.323147714138031,1.1282681226730347,-0.24556782841682434
1660273597926945300,1.7699453125,0.35552358627319336,1.1074986457824707,-0.22602014243602753
1660273597928945700,1.771945556640625,0.39156460762023926,1.081842303276062,-0.2015855312347412
1660273597930946000,1.773946044921875,0.41172316670417786,1.0653489828109741,-0.192422553896904
1660273597932946200,1.7759462890625,0.44776421785354614,1.0323622226715088,-0.17470745742321014
1660273597934946300,1.7779462890625,0.4862487316131592,0.9932668805122375,-0.15760323405265808
1660273597936946400,1.779946533203125,0.5051855444908142,0.9706648588180542,-0.15271630883216858
1660273597938946600,1.781946533203125,0.5424483418464661,0.9248499870300293,-0.13805554807186127
1660273597940946700,1.78394677734375,0.5803219676017761,0.8765916228294373,-0.1264491081237793
1660273597942944000,1.785944091796875,0.616973876953125,0.8246681094169617,-0.1111774742603302
1660273597944943400,1.787943359375,0.6322455406188965,0.79840087890625,-0.10567969083786011
1660273597946943200,1.789943115234375,0.6670648455619812,0.7446447610855103,-0.08979719132184982
1660273597948943400,1.791943359375,0.6841690540313721,0.720820963382721,-0.08124507963657379
1660273597950943200,1.793943115234375,0.7153232097625732,0.66584312915802,-0.06475171446800232
1660273597952943400,1.795943359375,0.7428121566772461,0.6065891981124878,-0.04581489413976669
1660273597954943200,1.797943115234375,0.7574729323387146,0.5797111392021179,-0.036651913076639175
1660273597956943400,1.799943359375,0.7825183868408203,0.5222898125648499,-0.01710422709584236
1660273597958943200,1.801943115234375,0.8057312369346619,0.4612032473087311,0.006719517521560192
1660273597960943400,1.803943359375,0.8148942589759827,0.43127086758613586,0.02015855349600315
1660273597962943200,1.805943115234375,0.8362745046615601,0.37079519033432007,0.04703662544488907
1660273597964943400,1.807943359375,0.8539896011352539,0.30970868468284607,0.07757988572120667
1660273597966943200,1.809943115234375,0.8631525635719299,0.2785545587539673,0.09468411654233932
1660273597968943400,1.811943359375,0.8784242272377014,0.21807889640331268,0.1258382350206375
1660273597970943200,1.813943115234375,0.8906415104866028,0.15454891324043274,0.16004669666290283
1660273597972943400,1.815943359375,0.8973610401153564,0.1270599663257599,0.17531833052635193
1660273597974943200,1.817943115234375,0.9065240025520325,0.0659734457731247,0.20891591906547546
1660273597976943400,1.819943359375,0.9138544201850891,0.007941247895359993,0.23884831368923187
1660273597978943500,1.821943603515625,0.9162978529930115,-0.021991148591041565,0.2535090744495392
1660273597980943400,1.823943359375,0.9248499870300293,-0.07941248267889023,0.2791654169559479
1660273597982942700,1.825942626953125,0.9346238374710083,-0.2028072625398636,0.3139847218990326
1660273597984941800,1.82794189453125,0.9346238374710083,-0.2028072625398636,0.3139847218990326
1660273597986941700,1.829941650390625,0.9370672702789307,-0.23090706765651703,0.32009339332580566
1660273597988941600,1.831941650390625,0.9431759119033813,-0.2889392673969269,0.32009339332580566
1660273597990941700,1.833941650390625,0.9468411207199097,-0.3194825351238251,0.32009339332580566
1660273597992941600,1.835941650390625,0.9523389339447021,-0.37751471996307373,0.31093040108680725
1660273597994941400,1.83794140625,0.960280179977417,-0.4386012554168701,0.2974913716316223
1660273597996941600,1.839941650390625,0.9663888216018677,-0.46792277693748474,0.28588494658470154
1660273597998941400,1.84194140625,0.9761626720428467,-0.5241223573684692,0.2583959996700287
1660273598000941600,1.843941650390625,0.979827880859375,-0.5534439086914062,0.24190263450145721
1660273598002942500,1.8459423828125,0.9920451641082764,-0.6023131608963013,0.20463985204696655
1660273598004942600,1.847942626953125,1.0054842233657837,-0.646906316280365,0.16432274878025055
1660273598006942700,1.849942626953125,1.0128145217895508,-0.6688974499702454,0.14294247329235077
1660273598008942600,1.851942626953125,1.0238101482391357,-0.7049384713172913,0.09285151958465576
1660273598010942700,1.853942626953125,1.0384708642959595,-0.7360926270484924,0.03848451003432274
1660273598012942300,1.8559423828125,1.0445796251296997,-0.7635815739631653,0.01038470957428217
1660273598014942200,1.857942138671875,1.053742527961731,-0.7764097452163696,-0.04948008432984352
1660273598016942300,1.8599423828125,1.062294602394104,-0.7971791625022888,-0.10690141469240189
1660273598018942200,1.861942138671875,1.0677924156188965,-0.8148942589759827,-0.1612684279680252
1660273598020942300,1.8639423828125,1.0677924156188965,-0.8222246170043945,-0.18936823308467865
1660273598022941400,1.86594140625,1.056796908378601,-0.8045095205307007,-0.342695415019989
1660273598024940500,1.8679404296875,1.056796908378601,-0.8045095205307007,-0.342695415019989
1660273598026940000,1.86993994140625,1.056796908378601,-0.8045095205307007,-0.342695415019989
1660273598028939000,1.87193896484375,1.056796908378601,-0.7910705208778381,-0.342695415019989
1660273598030939100,1.873939208984375,1.0506882667541504,-0.7910705208778381,-0.35246923565864563
1660273598032939000,1.87593896484375,1.034194827079773,-0.7617489695549011,-0.3701843321323395
1660273598034939100,1.877939208984375,1.017701506614685,-0.7232644557952881,-0.3787364661693573
1660273598036939000,1.87993896484375,1.009149432182312,-0.7031059265136719,-0.3799581825733185
1660273598038939000,1.88193896484375,0.9859365224838257,-0.6517932415008545,-0.37140607833862305
1660273598040939000,1.88393896484375,0.9608910083770752,-0.5992587804794312,-0.3543018400669098
1660273598042939600,1.885939697265625,0.9486737251281738,-0.5687155723571777,-0.342695415019989
1660273598044940800,1.88794091796875,0.9205739498138428,-0.5070181488990784,-0.3127630054950714
1660273598046940700,1.889940673828125,0.8875871896743774,-0.4398229718208313,-0.27000242471694946
1660273598048940800,1.89194091796875,0.8741481900215149,-0.4098905920982361,-0.2474004179239273
1660273598050941000,1.89394091796875,0.8454375267028809,-0.342695415019989,-0.1966986060142517
1660273598052940800,1.89594091796875,0.8136724829673767,-0.2828305959701538,-0.13439035415649414
1660273598054941000,1.89794091796875,0.79840087890625,-0.252287358045578,-0.10506882518529892
1660273598056940800,1.89994091796875,0.769079327583313,-0.19547687470912933,-0.036041051149368286
1660273598058941000,1.90194091796875,0.740368664264679,-0.14477506279945374,0.039706241339445114
1660273598060941000,1.903941162109375,0.7263187766075134,-0.12095131725072861,0.07757988572120667
1660273598062940200,1.905940185546875,0.6053674817085266,-0.0012217304902151227,0.403781920671463
1660273598064939300,1.907939208984375,0.6053674817085266,-0.0012217304902151227,0.403781920671463
1660273598066938400,1.9099384765625,0.6053674817085266,-0.0012217304902151227,0.403781920671463
1660273598068937500,1.9119375,0.5839871764183044,0.00366519158706069,0.4447098970413208
1660273598070936800,1.913936767578125,0.5839871764183044,0.00366519158706069,0.4447098970413208
1660273598072937200,1.915937255859375,0.5699372887611389,0.006719517521560192,0.48685958981513977
1660273598074937000,1.91793701171875,0.5363397002220154,0.004886921960860491,0.5674937963485718
1660273598076937200,1.919937255859375,0.5021312236785889,-0.0006108652451075613,0.645684540271759
1660273598078937000,1.92193701171875,0.48319441080093384,-0.006719517521560192,0.6866125464439392
1660273598080937000,1.92393701171875,0.45142942667007446,-0.021991148591041565,0.7635815739631653
1660273598082937900,1.925937744140625,0.42149701714515686,-0.039095375686883926,0.8326093554496765
1660273598084938800,1.927938720703125,0.4031710624694824,-0.048258353024721146,0.8674286603927612
1660273598086939600,1.929939697265625,0.3701843321323395,-0.07147123664617538,0.9327912330627441
1660273598088940300,1.931940185546875,0.3396410644054413,-0.09773843735456467,0.9932668805122375
1660273598090940400,1.9339404296875,0.32559117674827576,-0.1111774742603302,1.0183123350143433
1660273598092940300,1.935940185546875,0.2919935882091522,-0.1417207419872284,1.064738154411316
1660273598094940200,1.937940185546875,0.2626720666885376,-0.1765400618314743,1.102611780166626
1660273598096940300,1.939940185546875,0.25045475363731384,-0.19303341209888458,1.1160508394241333
1660273598098940400,1.9419404296875,0.2223549485206604,-0.23396138846874237,1.1459832191467285
1660273598100940300,1.943940185546875,0.19608774781227112,-0.2718350291252136,1.1655309200286865
1660273598102939600,1.945939697265625,0.10018189996480942,-0.4331034719944,1.187522053718567
1660273598104938500,1.9479384765625,0.09346238523721695,-0.4508185386657715,1.1844676733016968
1660273598106937600,1.9499375,0.08552113175392151,-0.46792277693748474,1.1789699792861938
1660273598108937000,1.95193701171875,0.08552113175392151,-0.46792277693748474,1.1789699792861938
1660273598110936600,1.9539365234375,0.08552113175392151,-0.46792277693748474,1.1789699792861938
1660273598112936400,1.9559365234375,0.08552113175392151,-0.46792277693748474,1.1789699792861938
1660273598114936300,1.957936279296875,0.07391469180583954,-0.48258355259895325,1.1734721660614014
1660273598116936400,1.9599365234375,0.060475658625364304,-0.503963828086853,1.160033106803894
1660273598118936300,1.961936279296875,0.04764748737215996,-0.5161811113357544,1.1447614431381226
1660273598120936200,1.963936279296875,0.042760565876960754,-0.5198463201522827,1.1355985403060913
1660273598122936300,1.965936279296875,0.03298672288656235,-0.5198463201522827,1.1142182350158691
1660273598124936200,1.967936279296875,0.025656340643763542,-0.5070181488990784,1.0934487581253052
1660273598126936300,1.969936279296875,0.02321287989616394,-0.4996877610683441,1.0836749076843262
1660273598128936400,1.9719365234375,0.018936822190880775,-0.47708576917648315,1.0641272068023682
1660273598130936800,1.973936767578125,0.021991148591041565,-0.44837507605552673,1.0409144163131714
1660273598132937000,1.97593701171875,0.021380282938480377,-0.4300491213798523,1.0317513942718506
1660273598134937000,1.97793701171875,0.025045474991202354,-0.39584067463874817,1.0152580738067627
1660273598136937200,1.979937255859375,0.03176499158143997,-0.35613444447517395,0.9969320893287659
1660273598138939000,1.98193896484375,0.036651913076639175,-0.3384193480014801,0.9847147464752197
1660273598140939000,1.98393896484375,0.048258353024721146,-0.2974913716316223,0.9627236127853394
1660273598142936300,1.985936279296875,0.06475171446800232,-0.23273965716362,0.9248499870300293
1660273598144936400,1.9879365234375,0.06475171446800232,-0.23273965716362,0.9248499870300293
1660273598146936300,1.989936279296875,0.07513642311096191,-0.18875735998153687,0.8961393237113953
1660273598148936400,1.9919365234375,0.08368854224681854,-0.1417207419872284,0.8600982427597046
1660273598150936300,1.993936279296875,0.08674286305904388,-0.12034045159816742,0.8393288254737854
1660273598152937500,1.9959375,0.09651670604944229,-0.07819075137376785,0.7935139536857605
1660273598154937300,1.997937255859375,0.10323622822761536,-0.03237585723400116,0.7373143434524536
1660273598156937500,1.9999375,0.10506882518529892,-0.012217304669320583,0.7067710757255554
1660273598158937600,2.0019375,0.10873401165008545,0.02871066704392433,0.6377432942390442
1660273598160937500,2.0039375,0.11056660860776901,0.06658431142568588,0.5583308339118958
1660273598162937300,2.005937255859375,0.11178833991289139,0.0806342139840126,0.5180137157440186
1660273598164938000,2.00793798828125,0.10934487730264664,0.10690141469240189,0.4294382631778717
1660273598166938400,2.0099384765625,0.10201449692249298,0.12278391420841217,0.33047810196876526
1660273598168938500,2.0119384765625,0.09407325088977814,0.1258382350206375,0.2785545587539673
1660273598170938400,2.0139384765625,0.0757472887635231,0.12339477986097336,0.17043140530586243
1660273598172938500,2.0159384765625,0.05009094998240471,0.1062905490398407,0.05742133408784866
1660273598174938400,2.0179384765625,0.03481931984424591,0.09529497474431992,-0.0024434609804302454
1660273598176938500,2.0199384765625,-0.00427605677396059,0.056810468435287476,-0.12522737681865692
1660273598178938600,2.021938720703125,-0.0507018156349659,0.012217304669320583,-0.24862214922904968
1660273598180938500,2.0239384765625,-0.07757988572120667,-0.016493361443281174,-0.3127630054950714
1660273598182937600,2.0259375,-0.21013765037059784,-0.14844025671482086,-0.5760459303855896
1660273598184937000,2.02793701171875,-0.21013765037059784,-0.14844025671482086,-0.5760459303855896
1660273598186936800,2.029936767578125,-0.24678955972194672,-0.18325957655906677,-0.6481280326843262
1660273598188937000,2.03193701171875,-0.3286454975605011,-0.25534167885780334,-0.7812966704368591
1660273598190936800,2.033936767578125,-0.413555771112442,-0.32131510972976685,-0.9089674949645996
1660273598192937000,2.03593701171875,-0.45875978469848633,-0.35063666105270386,-0.9731083512306213
1660273598194937300,2.037937255859375,-0.5510004758834839,-0.40622538328170776,-1.0946705341339111
1660273598196937200,2.039937255859375,-0.6401867866516113,-0.4440990388393402,-1.2125675678253174
1660273598198936800,2.041936767578125,-0.6878342628479004,-0.4599815309047699,-1.2681562900543213
1660273598200936700,2.043936767578125,-0.779464066028595,-0.4813618063926697,-1.3744467496871948
1660273598202937600,2.0459375,-0.8668177723884583,-0.4899139404296875,-1.4685200452804565
1660273598204937700,2.047937744140625,-0.9101892113685608,-0.49357911944389343,-1.5125023126602173
1660273598206937600,2.0499375,-0.9920451641082764,-0.4899139404296875,-1.5961909294128418
1660273598208937700,2.051937744140625,-1.0702359676361084,-0.484416127204895,-1.6725490093231201
1660273598210937900,2.053937744140625,-1.102611780166626,-0.48258355259895325,-1.7061465978622437
1660273598212937200,2.055937255859375,-1.169806957244873,-0.4795292317867279,-1.768454909324646
1660273598214937300,2.057937255859375,-1.2278391122817993,-0.4758640229701996,-1.825876235961914
1660273598216937200,2.059937255859375,-1.2498302459716797,-0.4758640229701996,-1.8515325784683228
1660273598218937300,2.061937255859375,-1.2919800281524658,-0.4764748811721802,-1.9022343158721924
1660273598220937500,2.0639375,-1.3292428255081177,-0.47830748558044434,-1.949881911277771
1660273598222936600,2.0659365234375,-1.3952162265777588,-0.4746423065662384,-2.0958786010742188
1660273598224935400,2.067935302734375,-1.3952162265777588,-0.4746423065662384,-2.0958786010742188
1660273598226934300,2.069934326171875,-1.3952162265777588,-0.4746423065662384,-2.0958786010742188
1660273598228933400,2.071933349609375,-1.3952162265777588,-0.4746423065662384,-2.0958786010742188
1660273598230933200,2.073933349609375,-1.3939944505691528,-0.4697553813457489,-2.1123719215393066
1660273598232933400,2.075933349609375,-1.3909401893615723,-0.46364670991897583,-2.1478021144866943
1660273598234933200,2.077933349609375,-1.3829989433288574,-0.45692721009254456,-2.163684606552124
1660273598236933000,2.07993310546875,-1.36650550365448,-0.44165557622909546,-2.188119411468506
1660273598238933200,2.081933349609375,-1.3390166759490967,-0.42088615894317627,-2.2040019035339355
1660273598240933000,2.08393310546875,-1.3200798034667969,-0.41111230850219727,-2.207667112350464
1660273598242934000,2.08593408203125,-1.2754865884780884,-0.3787364661693573,-2.2064452171325684
1660273598244935000,2.087934814453125,-1.216843605041504,-0.3384193480014801,-2.1875083446502686
1660273598246934800,2.089934814453125,-1.1844676733016968,-0.31642818450927734,-2.1759018898010254
1660273598248934100,2.09193408203125,-1.1074986457824707,-0.2669481039047241,-2.1374175548553467
1660273598250934300,2.093934326171875,-1.0286970138549805,-0.21013765037059784,-2.0861048698425293
1660273598252934100,2.09593408203125,-0.9828822016716003,-0.18020524084568024,-2.057394027709961
1660273598254933800,2.097933837890625,-0.8930850028991699,-0.12095131725072861,-1.987755537033081
1660273598256934000,2.099933837890625,-0.8002334833145142,-0.059864792972803116,-1.9046778678894043
1660273598258934000,2.10193408203125,-0.7556403279304504,-0.030543262138962746,-1.8637498617172241
1660273598260934000,2.103933837890625,-0.6719517707824707,0.025656340643763542,-1.7678439617156982
1660273598262933000,2.10593310546875,-0.4404338300228119,0.18325957655906677,-1.395827054977417
1660273598264932400,2.107932373046875,-0.4147774875164032,0.2015855312347412,-1.338405728340149
1660273598266931500,2.109931396484375,-0.4147774875164032,0.2015855312347412,-1.338405728340149
1660273598268930600,2.1119306640625,-0.4147774875164032,0.2015855312347412,-1.338405728340149
1660273598270930400,2.113930419921875,-0.4147774875164032,0.2015855312347412,-1.338405728340149
1660273598272930300,2.115930419921875,-0.37201693654060364,0.2272418737411499,-1.2290608882904053
1660273598274930400,2.117930419921875,-0.3378084897994995,0.24617868661880493,-1.1197160482406616
1660273598276930300,2.119930419921875,-0.32498031854629517,0.25045475363731384,-1.0671815872192383
1660273598278930200,2.12193017578125,-0.2974913716316223,0.24984388053417206,-0.959669291973114
1660273598280929300,2.12392919921875,-0.27550023794174194,0.24190263450145721,-0.8637634515762329
1660273598282930000,2.125929931640625,-0.2681698501110077,0.23396138846874237,-0.816726803779602
1660273598284930800,2.127930908203125,-0.2577851414680481,0.22052235901355743,-0.7281513810157776
1660273598286932000,2.129931884765625,-0.25045475363731384,0.20402899384498596,-0.6475171446800232
1660273598288933000,2.13193310546875,-0.2474004179239273,0.19853121042251587,-0.6108652353286743
1660273598290933000,2.13393310546875,-0.24129177629947662,0.1869247704744339,-0.5400048494338989
1660273598292933000,2.13593310546875,-0.24617868661880493,0.18020524084568024,-0.4807509481906891
1660273598294933000,2.13793310546875,-0.24373523890972137,0.1771509200334549,-0.4495968222618103
1660273598296933000,2.13993310546875,-0.24862214922904968,0.17898350954055786,-0.39706242084503174
1660273598298933200,2.141933349609375,-0.25595253705978394,0.182648703455925,-0.35246923565864563
1660273598300933000,2.14393310546875,-0.26022860407829285,0.18509216606616974,-0.33047810196876526
1660273598302932200,2.14593212890625,-0.3243694305419922,0.18081611394882202,-0.2015855312347412
1660273598304931600,2.147931640625,-0.3243694305419922,0.18081611394882202,-0.2015855312347412
1660273598306930700,2.1499306640625,-0.33292156457901,0.18081611394882202,-0.19120082259178162
1660273598308930300,2.151930419921875,-0.33292156457901,0.18081611394882202,-0.19120082259178162
1660273598310929400,2.153929443359375,-0.34758231043815613,0.17470745742321014,-0.182648703455925
1660273598312928500,2.155928466796875,-0.34758231043815613,0.17470745742321014,-0.182648703455925
1660273598314928400,2.157928466796875,-0.35552358627319336,0.17043140530586243,-0.1722639948129654
1660273598316928500,2.159928466796875,-0.3781255781650543,0.15882496535778046,-0.15577064454555511
1660273598318928400,2.161928466796875,-0.3903428912162781,0.1514945775270462,-0.14782938361167908
1660273598320928300,2.16392822265625,-0.413555771112442,0.13927727937698364,-0.13561208546161652
1660273598322928400,2.165928466796875,-0.4386012554168701,0.12339477986097336,-0.11850785464048386
1660273598324928300,2.16792822265625,-0.45204028487205505,0.11728613078594208,-0.11056660860776901
1660273598326928400,2.169928466796875,-0.47342056035995483,0.10018189996480942,-0.09162978827953339
1660273598328928300,2.17192822265625,-0.49846604466438293,0.08368854224681854,-0.07330382615327835
1660273598330928600,2.1739287109375,-0.5088507533073425,0.07513642311096191,-0.06169738993048668
1660273598332928800,2.1759287109375,-0.5314527750015259,0.05864306539297104,-0.039706241339445114
1660273598334929000,2.177928955078125,-0.5522221922874451,0.03787364438176155,-0.015882495790719986
1660273598336929000,2.179928955078125,-0.5583308339118958,0.027488935738801956,-0.001832595793530345
1660273598338929200,2.18192919921875,-0.5729916095733643,0.00733038317412138,0.02321287989616394
1660273598340929300,2.18392919921875,-0.5864306092262268,-0.013439035043120384,0.04642575979232788
1660273598342926800,2.1859267578125,-0.5949827432632446,-0.03298672288656235,0.07024950534105301
1660273598344927000,2.187927001953125,-0.5943718552589417,-0.04214970022439957,0.08307767659425735
1660273598346926800,2.1899267578125,-0.6004805564880371,-0.06230825558304787,0.10690141469240189
1660273598348926000,2.191926025390625,-0.5998696684837341,-0.07452555745840073,0.11972958594560623
1660273598350926000,2.193926025390625,-0.5992587804794312,-0.08796459436416626,0.1411098688840866
1660273598352926000,2.195926025390625,-0.5955936312675476,-0.09957103431224823,0.16065755486488342
1660273598354925300,2.19792529296875,-0.5919284224510193,-0.10873401165008545,0.17104226350784302
1660273598356925200,2.19992529296875,-0.5870414972305298,-0.11911872029304504,0.18875735998153687
1660273598358925300,2.20192529296875,-0.5772676467895508,-0.1264491081237793,0.20341812074184418
1660273598360925200,2.20392529296875,-0.5729916095733643,-0.12889257073402405,0.2119702398777008
1660273598362925300,2.20592529296875,-0.5607742667198181,-0.13072516024112701,0.2223549485206604
1660273598364925400,2.207925537109375,-0.5485569834709167,-0.13439035415649414,0.23029619455337524
1660273598366926000,2.209926025390625,-0.543059229850769,-0.13377949595451355,0.23396138846874237
1660273598368926000,2.211926025390625,-0.5277875661849976,-0.13377949595451355,0.23335053026676178
1660273598370926000,2.213926025390625,-0.5174028873443604,-0.13439035415649414,0.22846360504627228
1660273598372926200,2.21592626953125,-0.5082398653030396,-0.12950342893600464,0.2217440903186798
1660273598374926000,2.217926025390625,-0.49724429845809937,-0.12828169763088226,0.2064724564552307
1660273598376926200,2.21992626953125,-0.485027015209198,-0.12278391420841217,0.182648703455925
1660273598378926000,2.221926025390625,-0.48258355259895325,-0.11911872029304504,0.16859880089759827
1660273598380926200,2.22392626953125,-0.47219884395599365,-0.11301007121801376,0.13072516024112701
1660273598382925300,2.22592529296875,-0.455705463886261,-0.09285151958465576,0.03176499158143997
1660273598384924400,2.22792431640625,-0.455705463886261,-0.09285151958465576,0.03176499158143997
1660273598386924300,2.22992431640625,-0.4550946056842804,-0.08674286305904388,0.0006108652451075613
1660273598388924700,2.231924560546875,-0.44837507605552673,-0.07147123664617538,-0.06169738993048668
1660273598390924800,2.2339248046875,-0.4453207552433014,-0.06169738993048668,-0.09712757170200348
1660273598392925200,2.23592529296875,-0.44165557622909546,-0.03848451003432274,-0.16493362188339233
1660273598394925000,2.237925048828125,-0.4343251883983612,-0.012217304669320583,-0.2370157092809677
1660273598396925000,2.239925048828125,-0.43188172578811646,0.0024434609804302454,-0.2718350291252136
1660273598398925000,2.241925048828125,-0.423329621553421,0.028099801391363144,-0.3439171314239502
1660273598400925000,2.243925048828125,-0.4190535545349121,0.05253441259264946,-0.41599923372268677
1660273598402925800,2.24592578125,-0.4153883755207062,0.0659734457731247,-0.4508185386657715
1660273598404925700,2.24792578125,-0.41111230850219727,0.08735372871160507,-0.5192354321479797
1660273598406925800,2.24992578125,-0.4080579876899719,0.10934487730264664,-0.5845980644226074
1660273598408926200,2.25192626953125,-0.40622538328170776,0.11850785464048386,-0.616973876953125
1660273598410926300,2.25392626953125,-0.4043927788734436,0.13866640627384186,-0.6743952035903931
1660273598412926200,2.25592626953125,-0.4043927788734436,0.15943582355976105,-0.7195992469787598
1660273598414926600,2.257926513671875,-0.4043927788734436,0.17409659922122955,-0.7409795522689819
1660273598416926700,2.2599267578125,-0.4056145250797272,0.1973094791173935,-0.7745771408081055
1660273598418925800,2.26192578125,-0.4080579876899719,0.20952677726745605,-0.789237916469574
1660273598420925700,2.26392578125,-0.4086688458919525,0.23640485107898712,-0.8112290501594543
1660273598422925000,2.265925048828125,-0.43127086758613586,0.30115658044815063,-0.8118399381637573
1660273598424924200,2.267924072265625,-0.43799036741256714,0.30604347586631775,-0.7996225953102112
1660273598426922800,2.2699228515625,-0.43799036741256714,0.30604347586631775,-0.7996225953102112
1660273598428921900,2.271921875,-0.43799036741256714,0.30604347586631775,-0.7996225953102112
1660273598430921700,2.273921630859375,-0.44226643443107605,0.3078760802745819,-0.7898487448692322
1660273598432921900,2.275921875,-0.4453207552433014,0.3127630054950714,-0.7757988572120667
1660273598434922000,2.277921875,-0.45265114307403564,0.3176499307155609,-0.7422012686729431
1660273598436922000,2.279922119140625,-0.45875978469848633,0.3176499307155609,-0.7012733221054077
1660273598438922000,2.281921875,-0.46181413531303406,0.3176499307155609,-0.6768386960029602
1660273598440922000,2.283922119140625,-0.46731191873550415,0.32009339332580566,-0.6230825781822205
1660273598442923000,2.285923095703125,-0.475253164768219,0.32009339332580566,-0.5619960427284241
1660273598444924000,2.287923828125,-0.4740314185619354,0.32070425152778625,-0.5302310585975647
1660273598446924000,2.289924072265625,-0.475253164768219,0.3194825351238251,-0.45692721009254456
1660273598448923600,2.291923583984375,-0.4789183437824249,0.3188716471195221,-0.3830125033855438
1660273598450923800,2.293923828125,-0.4789183437824249,0.31459560990333557,-0.34208452701568604
1660273598452923400,2.29592333984375,-0.47708576917648315,0.3127630054950714,-0.2590068578720093
1660273598454923300,2.29792333984375,-0.4715879559516907,0.3121521472930908,-0.16859880089759827
1660273598456923400,2.29992333984375,-0.46731191873550415,0.31581732630729675,-0.1264491081237793
1660273598458923300,2.30192333984375,-0.4605923891067505,0.31581732630729675,-0.03298672288656235
1660273598460923400,2.30392333984375,-0.4538728892803192,0.3219259977340698,0.06230825558304787
1660273598462922500,2.305922607421875,-0.41233405470848083,0.3604104816913605,0.4343251883983612
1660273598464921600,2.307921630859375,-0.40622538328170776,0.3597996234893799,0.4789183437824249
1660273598466920700,2.309920654296875,-0.40133845806121826,0.3579670190811157,0.5210680365562439
1660273598468919800,2.311919921875,-0.40133845806121826,0.3579670190811157,0.5210680365562439
1660273598470919000,2.3139189453125,-0.40133845806121826,0.3579670190811157,0.5210680365562439
1660273598472918300,2.315918212890625,-0.40133845806121826,0.3579670190811157,0.5210680365562439
1660273598474918100,2.317918212890625,-0.3952298164367676,0.3591887652873993,0.5589417219161987
1660273598476918300,2.319918212890625,-0.38240164518356323,0.3481931984424591,0.637132465839386
1660273598478919000,2.3219189453125,-0.3732386529445648,0.3335324227809906,0.7061602473258972
1660273598480919000,2.3239189453125,-0.3689626157283783,0.3225368559360504,0.7428121566772461
1660273598482920000,2.325919921875,-0.3591887652873993,0.2981022298336029,0.8020660877227783
1660273598484920000,2.327920166015625,-0.3481931984424591,0.27061331272125244,0.8576548099517822
1660273598486924500,2.329924560546875,-0.3445279896259308,0.2571742534637451,0.8808676600456238
1660273598488924700,2.331924560546875,-0.33475416898727417,0.2223549485206604,0.921795666217804
1660273598490925000,2.333925048828125,-0.3323107063770294,0.18081611394882202,0.9633345007896423
1660273598492925200,2.33592529296875,-0.3286454975605011,0.15943582355976105,0.9761626720428467
1660273598494925300,2.33792529296875,-0.323147714138031,0.11178833991289139,0.9993755221366882
1660273598496925400,2.339925537109375,-0.3194825351238251,0.06475171446800232,1.017701506614685
1660273598498925600,2.341925537109375,-0.3188716471195221,0.04092797264456749,1.0219775438308716
1660273598500925700,2.34392578125,-0.32009339332580566,-0.009773843921720982,1.0317513942718506
1660273598502923300,2.34592333984375,-0.3500257730484009,-0.19058994948863983,1.037249207496643
1660273598504920800,2.3479208984375,-0.3536909818649292,-0.2076941877603531,1.037249207496643
1660273598506918700,2.349918701171875,-0.3579670190811157,-0.22479841113090515,1.0396926403045654
1660273598508916500,2.35191650390625,-0.3579670190811157,-0.22479841113090515,1.0396926403045654
1660273598510915300,2.353915283203125,-0.3579670190811157,-0.22479841113090515,1.0396926403045654
1660273598512913700,2.35591357421875,-0.3579670190811157,-0.22479841113090515,1.0396926403045654
1660273598514913800,2.357913818359375,-0.36224308609962463,-0.2376265823841095,1.0403034687042236
1660273598516912000,2.359912109375,-0.37140607833862305,-0.26022860407829285,1.0421360731124878
1660273598518912300,2.361912353515625,-0.3805690407752991,-0.27611109614372253,1.0464121103286743
1660273598520912400,2.363912353515625,-0.3836233615875244,-0.28099802136421204,1.0525208711624146
1660273598522912300,2.365912353515625,-0.38606682419776917,-0.2871066629886627,1.0592403411865234
1660273598524912400,2.367912353515625,-0.39095374941825867,-0.29016098380088806,1.0671815872192383
1660273598526912300,2.369912353515625,-0.39217549562454224,-0.28466320037841797,1.072068452835083
1660273598528912400,2.371912353515625,-0.39156460762023926,-0.2767219543457031,1.081842303276062
1660273598530912300,2.373912353515625,-0.3878994286060333,-0.25534167885780334,1.0983357429504395
1660273598532912400,2.375912353515625,-0.3830125033855438,-0.2431243658065796,1.1074986457824707
1660273598534912000,2.377912109375,-0.3701843321323395,-0.21441370248794556,1.1252137422561646
1660273598536912000,2.379911865234375,-0.3549126982688904,-0.1771509200334549,1.1453723907470703
1660273598538911700,2.381911865234375,-0.34513887763023376,-0.15515977144241333,1.160033106803894
1660273598540911600,2.38391162109375,-0.3176499307155609,-0.11423180252313614,1.1771373748779297
1660273598542909000,2.385908935546875,-0.2681698501110077,-0.05925392732024193,1.2021827697753906
1660273598544908800,2.38790869140625,-0.2681698501110077,-0.05925392732024193,1.2021827697753906
1660273598546909000,2.389908935546875,-0.22663100063800812,-0.036041051149368286,1.2064588069915771
1660273598548908300,2.391908203125,-0.1765400618314743,-0.029932396486401558,1.1985175609588623
1660273598550908200,2.393908203125,-0.14844025671482086,-0.030543262138962746,1.189354658126831
1660273598552908300,2.395908203125,-0.0910189226269722,-0.05009094998240471,1.1618657112121582
1660273598554907400,2.397907470703125,-0.02871066704392433,-0.08368854224681854,1.1154398918151855
1660273598556907300,2.3999072265625,0.00427605677396059,-0.10690141469240189,1.0867292881011963
1660273598558907400,2.401907470703125,0.06902777403593063,-0.16004669666290283,1.018923282623291
1660273598560907300,2.4039072265625,0.1319468915462494,-0.22418753802776337,0.9352346658706665
1660273598562907100,2.4059072265625,0.15943582355976105,-0.2571742534637451,0.8900306820869446
1660273598564907300,2.4079072265625,0.21441370248794556,-0.3286454975605011,0.7855727076530457
1660273598566907000,2.409906982421875,0.26511552929878235,-0.3982841372489929,0.675006091594696
1660273598568906800,2.41190673828125,0.2877175211906433,-0.4288274049758911,0.6163630485534668
1660273598570907000,2.413906982421875,0.32620203495025635,-0.48869219422340393,0.49846604466438293
1660273598572907000,2.415906982421875,0.3585779070854187,-0.5283984541893005,0.3781255781650543
1660273598574907100,2.4179072265625,0.37079519033432007,-0.5418374538421631,0.3170390725135803
1660273598576907000,2.419906982421875,0.3897320330142975,-0.5619960427284241,0.2021963894367218
1660273598578907100,2.4219072265625,0.40622538328170776,-0.5638286471366882,0.08796459436416626
1660273598580907000,2.423906982421875,0.4098905920982361,-0.5607742667198181,0.0354301854968071
1660273598582906000,2.425906005859375,0.4098905920982361,-0.5210680365562439,-0.17592918872833252
1660273598584905200,2.4279052734375,0.4098905920982361,-0.5210680365562439,-0.17592918872833252
1660273598586905300,2.4299052734375,0.403781920671463,-0.5027421116828918,-0.22479841113090515
1660273598588905000,2.431905029296875,0.39156460762023926,-0.4612032473087311,-0.313373863697052
1660273598590905000,2.433905029296875,0.37262779474258423,-0.41599923372268677,-0.3933972120285034
1660273598592905000,2.435905029296875,0.36163222789764404,-0.39156460762023926,-0.4331034719944
1660273598594905000,2.437905029296875,0.33536502718925476,-0.33292156457901,-0.4966334402561188
1660273598596905000,2.439905029296875,0.30970868468284607,-0.2767219543457031,-0.5510004758834839
1660273598598905000,2.441905029296875,0.2938261926174164,-0.24617868661880493,-0.5711590051651001
1660273598600905200,2.4439052734375,0.26633724570274353,-0.18509216606616974,-0.6059783101081848
1660273598602906000,2.445906005859375,0.2382374405860901,-0.12828169763088226,-0.627358615398407
1660273598604906000,2.447906005859375,0.2223549485206604,-0.09957103431224823,-0.6334672570228577
1660273598606906000,2.449906005859375,0.19058994948863983,-0.042760565876960754,-0.6401867866516113
1660273598608906200,2.45190625,0.15882496535778046,0.006719517521560192,-0.636521577835083
1660273598610906400,2.45390625,0.1417207419872284,0.03237585723400116,-0.6285803318023682
1660273598612906800,2.45590673828125,0.11178833991289139,0.07757988572120667,-0.6151412725448608
1660273598614907100,2.4579072265625,0.08002334833145142,0.11301007121801376,-0.5931501388549805
1660273598616907300,2.4599072265625,0.06475171446800232,0.12522737681865692,-0.5791002511978149
1660273598618907000,2.461906982421875,0.039706241339445114,0.14416420459747314,-0.5564982295036316
1660273598620907000,2.463906982421875,0.015271631069481373,0.14782938361167908,-0.5326744914054871
1660273598622906000,2.465906005859375,-0.015882495790719986,0.08491026610136032,-0.48869219422340393
1660273598624905200,2.4679052734375,-0.015882495790719986,0.08491026610136032,-0.48869219422340393
1660273598626904600,2.469904541015625,-0.015882495790719986,0.08491026610136032,-0.48869219422340393
1660273598628903700,2.471903564453125,-0.015882495790719986,0.08491026610136032,-0.48869219422340393
1660273598630903800,2.47390380859375,-0.01466076634824276,0.06719517707824707,-0.48808133602142334
1660273598632903200,2.475903076171875,-0.006108652334660292,0.02626720629632473,-0.4966334402561188
1660273598634903000,2.477903076171875,-0.0024434609804302454,0.00427605677396059,-0.50335294008255
1660273598636903200,2.479903076171875,0.013439035043120384,-0.0403171069920063,-0.5259549617767334
1660273598638903000,2.481903076171875,0.02871066704392433,-0.08491026610136032,-0.5534439086914062
1660273598640903200,2.483903076171875,0.03726277872920036,-0.10262536257505417,-0.5723807215690613
1660273598642904000,2.485904052734375,0.054367005825042725,-0.1319468915462494,-0.6065891981124878
1660273598644904400,2.487904541015625,0.07269296050071716,-0.15760323405265808,-0.6493497490882874
1660273598646904600,2.489904541015625,0.08246681094169617,-0.16432274878025055,-0.6707300543785095
1660273598648904700,2.49190478515625,0.09773843735456467,-0.16982053220272064,-0.7098253965377808
1660273598650904800,2.49390478515625,0.11362093687057495,-0.1661553531885147,-0.7525860071182251
1660273598652905000,2.495905029296875,0.12095131725072861,-0.15515977144241333,-0.7715228199958801
1660273598654904800,2.49790478515625,0.13011430203914642,-0.1319468915462494,-0.8093964457511902
1660273598656905000,2.499905029296875,0.13805554807186127,-0.08979719132184982,-0.8417723178863525
1660273598658904800,2.50190478515625,0.14416420459747314,-0.06658431142568588,-0.8570439219474792
1660273598660904700,2.50390478515625,0.15271630883216858,-0.005497787147760391,-0.8845328688621521
1660273598662903800,2.50590380859375,0.18814650177955627,0.34574973583221436,-0.9419541954994202
1660273598664903000,2.50790283203125,0.192422553896904,0.3952298164367676,-0.9474520087242126
1660273598666902000,2.509902099609375,0.19853121042251587,0.44226643443107605,-0.9492846131324768
1660273598668901000,2.511901123046875,0.19853121042251587,0.44226643443107605,-0.9492846131324768
1660273598670900200,2.513900146484375,0.19853121042251587,0.44226643443107605,-0.9492846131324768
1660273598672898800,2.51589892578125,0.19853121042251587,0.44226643443107605,-0.9492846131324768
1660273598674899000,2.51789892578125,0.21502456068992615,0.543059229850769,-0.9553932547569275
1660273598676900000,2.519900146484375,0.22540926933288574,0.5907067060470581,-0.9572258591651917
1660273598678900200,2.521900146484375,0.24617868661880493,0.6860016584396362,-0.9608910083770752
1660273598680900400,2.523900390625,0.27000242471694946,0.7739662528038025,-0.9639453291893005
1660273598682896400,2.525896484375,0.2816088795661926,0.817948579788208,-0.9639453291893005
1660273598684896300,2.527896240234375,0.30543261766433716,0.902247965335846,-0.9657779335975647
1660273598686896400,2.529896484375,0.3292563557624817,0.9804387092590332,-0.9621127843856812
1660273598688896300,2.531896240234375,0.3433062732219696,1.018923282623291,-0.959669291973114
1660273598690896100,2.533896240234375,0.36651915311813354,1.0836749076843262,-0.9535606503486633
1660273598692896000,2.53589599609375,0.39095374941825867,1.1423180103302002,-0.9425650835037231
1660273598694895600,2.5378955078125,0.4056145250797272,1.1691961288452148,-0.9388998746871948
1660273598696895500,2.5398955078125,0.43249258399009705,1.208902359008789,-0.921184778213501
1660273598698895400,2.541895263671875,0.4605923891067505,1.2388347387313843,-0.9046914577484131
1660273598700895200,2.543895263671875,0.4764748811721802,1.2504411935806274,-0.8949176073074341
1660273598702892500,2.545892578125,0.6053674817085266,1.2235630750656128,-0.7819074988365173
1660273598704890000,2.54789013671875,0.6230825781822205,1.2052371501922607,-0.7666358947753906
1660273598706888000,2.549887939453125,0.6230825781822205,1.2052371501922607,-0.7666358947753906
1660273598708885800,2.5518857421875,0.6401867866516113,1.1850786209106445,-0.7458664774894714
1660273598710883800,2.5538837890625,0.6401867866516113,1.1850786209106445,-0.7458664774894714
1660273598712883000,2.555883056640625,0.656069278717041,1.1618657112121582,-0.7244861721992493
1660273598714883000,2.557883056640625,0.6731734871864319,1.1368201971054077,-0.7012733221054077
1660273598716884500,2.559884521484375,0.7031059265136719,1.0824532508850098,-0.6542366743087769
1660273598718884400,2.56188427734375,0.7183775305747986,1.0506882667541504,-0.6285803318023682
1660273598720884500,2.563884521484375,0.7470881938934326,0.9841039180755615,-0.5729916095733643
1660273598722884400,2.56588427734375,0.7751879692077637,0.9077457785606384,-0.5161811113357544
1660273598724884500,2.567884521484375,0.7874053120613098,0.8655960559844971,-0.48685958981513977
1660273598726884400,2.56988427734375,0.8106181621551514,0.7776314616203308,-0.4239404797554016
1660273598728884500,2.571884521484375,0.8338310718536377,0.6823364496231079,-0.3585779070854187
1660273598730884400,2.57388427734375,0.8411614298820496,0.6298020482063293,-0.3280346393585205
1660273598732884500,2.575884521484375,0.856433093547821,0.5241223573684692,-0.26083946228027344
1660273598734884400,2.57788427734375,0.8692612648010254,0.40744712948799133,-0.1918116807937622
1660273598736884500,2.579884521484375,0.8698720932006836,0.34697145223617554,-0.15882496535778046
1660273598738884400,2.58188427734375,0.8765916228294373,0.2217440903186798,-0.08674286305904388
1660273598740884200,2.58388427734375,0.8784242272377014,0.09346238523721695,-0.01466076634824276
1660273598742883300,2.58588330078125,0.8772025108337402,-0.04214970022439957,0.054367005825042725
1660273598744883500,2.587883544921875,0.8753699064254761,-0.11178833991289139,0.08857546001672745
1660273598746883300,2.58988330078125,0.8710938692092896,-0.24617868661880493,0.15515977144241333
1660273598748883200,2.59188330078125,0.8655960559844971,-0.31459560990333557,0.18814650177955627
1660273598750883300,2.59388330078125,0.8594874143600464,-0.44226643443107605,0.25106561183929443
1660273598752883500,2.595883544921875,0.8503243923187256,-0.5662720799446106,0.31093040108680725
1660273598754883300,2.59788330078125,0.8472700715065002,-0.626747727394104,0.33597588539123535
1660273598756883500,2.599883544921875,0.8381071090698242,-0.7391469478607178,0.3891211748123169
1660273598758883300,2.60188330078125,0.8313875794410706,-0.846659243106842,0.4306600093841553
1660273598760883500,2.603883544921875,0.8289441466331482,-0.8961393237113953,0.4489859640598297
1660273598762884400,2.60588427734375,0.8203920125961304,-0.9859365224838257,0.4789183437824249
1660273598764885200,2.60788525390625,0.8155050873756409,-1.0610729455947876,0.5009095072746277
1660273598766886100,2.60988623046875,0.8118399381637573,-1.0903944969177246,0.5094616413116455
1660273598768887000,2.611886962890625,0.8093964457511902,-1.141707181930542,0.5174028873443604
1660273598770888000,2.613887939453125,0.8063421249389648,-1.1789699792861938,0.513737678527832
1660273598772888300,2.615888427734375,0.8057312369346619,-1.1917980909347534,0.5088507533073425
1660273598774888400,2.617888427734375,0.8069530129432678,-1.2082914113998413,0.4911356568336487
1660273598776887300,2.61988720703125,0.816726803779602,-1.2137892246246338,0.4599815309047699
1660273598778887000,2.621886962890625,0.8222246170043945,-1.2119566202163696,0.44104471802711487
1660273598780887000,2.623886962890625,0.8319984674453735,-1.208902359008789,0.39156460762023926
1660273598782886100,2.62588623046875,0.8576548099517822,-1.186300277709961,0.25961771607398987
1660273598784885200,2.62788525390625,0.8576548099517822,-1.186300277709961,0.25961771607398987
1660273598786885400,2.629885498046875,0.8680394887924194,-1.1740829944610596,0.2174680233001709
