time,seconds_elapsed,z,y,x
1660273596208257500,0.051257568359375,-0.3554472029209137,-0.22487476468086243,-0.13118331134319305
1660273596210254300,0.05325439453125,-0.3554472029209137,-0.22487476468086243,-0.13118331134319305
1660273596212254500,0.05525439453125,-0.3554472029209137,-0.22487476468086243,-0.13118331134319305
1660273596214254300,0.05725439453125,-0.3554472029209137,-0.22487476468086243,-0.13118331134319305
1660273596216254500,0.05925439453125,-0.3554472029209137,-0.22487476468086243,-0.13118331134319305
1660273596218254300,0.06125439453125,-0.17463110387325287,-0.24747678637504578,-0.2955060601234436
1660273596220249300,0.063249267578125,-0.14164437353610992,-0.23709207773208618,-0.3150537610054016
1660273596222245400,0.065245361328125,-0.13859005272388458,-0.2358703464269638,-0.31810808181762695
1660273596224241700,0.06724169921875,-0.13859005272388458,-0.2358703464269638,-0.31810808181762695
1660273596226238700,0.06923876953125,-0.13859005272388458,-0.2358703464269638,-0.31810808181762695
1660273596228238800,0.07123876953125,-0.13431400060653687,-0.2309834212064743,-0.31932979822158813
1660273596230239000,0.073239013671875,-0.13614659011363983,-0.22915083169937134,-0.3217732608318329
1660273596232239000,0.075239013671875,-0.137979194521904,-0.22365303337574005,-0.31810808181762695
1660273596234239000,0.077239013671875,-0.14530956745147705,-0.22365303337574005,-0.31810808181762695
1660273596236239000,0.079239013671875,-0.14897476136684418,-0.22365303337574005,-0.3168863356113434
1660273596238239000,0.081239013671875,-0.1575268805027008,-0.2267073690891266,-0.3162754774093628
1660273596240239000,0.083239013671875,-0.16974417865276337,-0.22792910039424896,-0.31383201479911804
1660273596242239000,0.085239013671875,-0.17524196207523346,-0.22731822729110718,-0.31261029839515686
1660273596244239000,0.087239013671875,-0.18623754382133484,-0.22731822729110718,-0.3119994103908539
1660273596246239000,0.089239013671875,-0.1978439837694168,-0.2205987125635147,-0.30772337317466736
1660273596248239000,0.091239013671875,-0.20517437160015106,-0.21876612305641174,-0.3065016269683838
1660273596250239000,0.093239013671875,-0.21494820713996887,-0.2114357352256775,-0.3065016269683838
1660273596252239000,0.095239013671875,-0.23266330361366272,-0.19494237005710602,-0.30283644795417786
1660273596254239000,0.097239013671875,-0.23755022883415222,-0.18944458663463593,-0.3003929853439331
1660273596256239000,0.099239013671875,-0.24610233306884766,-0.17478381097316742,-0.294895201921463
1660273596258239000,0.101239013671875,-0.2595413625240326,-0.15829046070575714,-0.2900082767009735
1660273596260237800,0.10323779296875,-0.29619327187538147,-0.0593302883207798,-0.25763240456581116
1660273596262237000,0.10523681640625,-0.3004693388938904,-0.04222606122493744,-0.2551889419555664
1660273596264236000,0.107236083984375,-0.3035236597061157,-0.0214566420763731,-0.2509129047393799
1660273596266235100,0.109235107421875,-0.3035236597061157,-0.0214566420763731,-0.2509129047393799
1660273596268234200,0.111234130859375,-0.3035236597061157,-0.0214566420763731,-0.2509129047393799
1660273596270233300,0.1132333984375,-0.3035236597061157,-0.0214566420763731,-0.2509129047393799
1660273596272233500,0.1152333984375,-0.3053562641143799,-0.0012980886967852712,-0.24663683772087097
1660273596274233300,0.1172333984375,-0.3084105849266052,0.04024074971675873,-0.23869559168815613
1660273596276233500,0.1192333984375,-0.3102431893348694,0.08666650950908661,-0.23625212907791138
1660273596278233600,0.121233642578125,-0.31146490573883057,0.10926852375268936,-0.23380866646766663
1660273596280233500,0.1232333984375,-0.3096323311328888,0.15080735087394714,-0.22892175614833832
1660273596282233000,0.125233154296875,-0.3035236597061157,0.19112446904182434,-0.22708915174007416
1660273596284232700,0.127232666015625,-0.30169108510017395,0.20700696110725403,-0.2295326143503189
1660273596286232300,0.129232421875,-0.2937498390674591,0.24060454964637756,-0.22831088304519653
1660273596288232200,0.131232177734375,-0.28275424242019653,0.2803107798099518,-0.22892175614833832
1660273596290232000,0.133232177734375,-0.27847820520401,0.29680415987968445,-0.2252565622329712
1660273596292232000,0.13523193359375,-0.2644282877445221,0.3334560692310333,-0.22281309962272644
1660273596294231800,0.137231689453125,-0.2436588704586029,0.36827537417411804,-0.21609358489513397
1660273596296231700,0.139231689453125,-0.23205243051052094,0.3859904706478119,-0.2093740701675415
1660273596298230500,0.14123046875,-0.2033417671918869,0.41836634278297424,-0.19593502581119537
1660273596300228000,0.14322802734375,-0.020082194358110428,0.43852490186691284,-0.08720101416110992
1660273596302225700,0.1452255859375,-0.020082194358110428,0.43852490186691284,-0.08720101416110992
1660273596304223700,0.1472236328125,-0.020082194358110428,0.43852490186691284,-0.08720101416110992
1660273596306221800,0.149221923828125,-0.0017562375869601965,0.42875105142593384,-0.06765332818031311
1660273596308220200,0.15122021484375,0.01412625890225172,0.4165337383747101,-0.04505131021142006
1660273596310227500,0.1532275390625,0.01412625890225172,0.4165337383747101,-0.04505131021142006
1660273596312255500,0.15525537109375,0.043447788804769516,0.38232529163360596,0.0025961773935705423
1660273596314255400,0.15725537109375,0.0593302883207798,0.36277759075164795,0.027030786499381065
1660273596316253400,0.15925341796875,0.08804095536470413,0.31696268916130066,0.07467827945947647
1660273596318253600,0.161253662109375,0.11675161868333817,0.2644282877445221,0.11804971098899841
1660273596320253400,0.16325341796875,0.13263411819934845,0.23999367654323578,0.13820825517177582
1660273596322253600,0.165253662109375,0.17234036326408386,0.1825723499059677,0.17608191072940826
1660273596324253400,0.16725341796875,0.21693351864814758,0.13064880669116974,0.20906862616539001
1660273596326253600,0.169253662109375,0.24014639854431152,0.10010553896427155,0.2292271852493286
1660273596328253400,0.17125341796875,0.29329168796539307,0.044516805559396744,0.26343563199043274
1660273596330253300,0.17325341796875,0.34521523118019104,-0.010461067780852318,0.30802878737449646
1660273596332253200,0.175253173828125,0.37453675270080566,-0.03611740842461586,0.32879820466041565
1660273596334253000,0.177253173828125,0.4246276915073395,-0.08743008971214294,0.37461310625076294
1660273596336253000,0.1792529296875,0.4673882722854614,-0.13629931211471558,0.41920626163482666
1660273596338252800,0.181252685546875,0.48571422696113586,-0.15890131890773773,0.44058656692504883
1660273596340251000,0.1832509765625,0.5248095989227295,-0.22976168990135193,0.5059491395950317
1660273596342250800,0.185250732421875,0.5321399569511414,-0.2517528533935547,0.526107668876648
1660273596344251000,0.1872509765625,0.5370268821716309,-0.277409166097641,0.5438227653503418
1660273596346250800,0.189250732421875,0.5449681282043457,-0.3226132094860077,0.5798638463020325
1660273596348251000,0.1912509765625,0.5437464118003845,-0.37087157368659973,0.6000223755836487
1660273596350250800,0.193250732421875,0.5455790162086487,-0.3934735655784607,0.6049093008041382
1660273596352251000,0.1952509765625,0.5425246953964233,-0.4380667507648468,0.6000223755836487
1660273596354250800,0.197250732421875,0.5345834493637085,-0.48021644353866577,0.5792529582977295
1660273596356251000,0.1992509765625,0.5284748077392578,-0.5015967488288879,0.5615378618240356
1660273596358250800,0.201250732421875,0.5070945024490356,-0.5461899042129517,0.5175555944442749
1660273596360251000,0.2032509765625,0.47655123472213745,-0.5944482684135437,0.4668537676334381
1660273596362250800,0.205250732421875,0.4600578844547272,-0.6182720065116882,0.43875396251678467
1660273596364251000,0.2072509765625,0.4191299080848694,-0.6646977663040161,0.37950003147125244
1660273596366250800,0.209250732421875,0.3733150362968445,-0.7037931084632874,0.31413745880126953
1660273596368250600,0.211250732421875,0.34949126839637756,-0.7227299213409424,0.2799290120601654
1660273596370250800,0.213250732421875,0.3012329339981079,-0.7526623606681824,0.2096794992685318
1660273596372250600,0.215250732421875,0.24930937588214874,-0.7740426063537598,0.14126259088516235
1660273596374250500,0.21725048828125,0.22243130207061768,-0.7777078151702881,0.10399980843067169
1660273596376250600,0.219250732421875,0.1711186319589615,-0.7832056283950806,0.033139441162347794
1660273596378250800,0.221250732421875,0.1149190217256546,-0.7764860987663269,-0.03649919852614403
1660273596380249900,0.223249755859375,0.031230485066771507,-0.7538840770721436,-0.13545936346054077
1660273596382249000,0.2252490234375,0.004352414980530739,-0.7386124134063721,-0.16783522069454193
1660273596384249000,0.2272490234375,-0.02496911771595478,-0.7239516973495483,-0.20204368233680725
1660273596386249200,0.229249267578125,-0.05367978289723396,-0.7025713920593262,-0.2301434874534607
1660273596388249000,0.2312490234375,-0.10987938940525055,-0.6537021994590759,-0.28328874707221985
1660273596390249200,0.233249267578125,-0.16058120131492615,-0.5950590968132019,-0.3352122902870178
1660273596392249300,0.235249267578125,-0.18440493941307068,-0.5608506798744202,-0.35659259557724
1660273596394249200,0.237249267578125,-0.23205243051052094,-0.4887685477733612,-0.3956879675388336
1660273596396249300,0.239249267578125,-0.27725645899772644,-0.41607558727264404,-0.427452951669693
1660273596398249200,0.241249267578125,-0.2949715554714203,-0.37575846910476685,-0.43905940651893616
1660273596400249900,0.243249755859375,-0.33223432302474976,-0.29878947138786316,-0.4579962193965912
1660273596402250000,0.24525,-0.36277759075164795,-0.22792910039424896,-0.46471574902534485
1660273596404250000,0.24725,-0.3792709708213806,-0.19249890744686127,-0.4671591818332672
1660273596406250000,0.24925,-0.4055381715297699,-0.12469286471605301,-0.4616613984107971
1660273596408249900,0.251249755859375,-0.42814019322395325,-0.0593302883207798,-0.44394633173942566
1660273596410250000,0.25325,-0.4354705512523651,-0.028787024319171906,-0.43478333950042725
1660273596412249900,0.255249755859375,-0.4513530433177948,0.03352123126387596,-0.4079052805900574
1660273596414249700,0.257249755859375,-0.4617377817630768,0.09827294945716858,-0.3767511546611786
1660273596416249900,0.259249755859375,-0.4617377817630768,0.1269836127758026,-0.35842517018318176
1660273596418249700,0.261249755859375,-0.4666246771812439,0.17524196207523346,-0.3248275816440582
1660273596420248800,0.263248779296875,-0.4611268937587738,0.31207579374313354,-0.17272214591503143
1660273596422248200,0.265248291015625,-0.4611268937587738,0.31207579374313354,-0.17272214591503143
1660273596424247300,0.267247314453125,-0.4611268937587738,0.31207579374313354,-0.17272214591503143
1660273596426246400,0.269246337890625,-0.4611268937587738,0.31207579374313354,-0.17272214591503143
1660273596428246500,0.27124658203125,-0.45929431915283203,0.3200170397758484,-0.14706580340862274
1660273596430246400,0.273246337890625,-0.45440739393234253,0.3255148231983185,-0.0988074541091919
1660273596432246500,0.27524658203125,-0.45257478952407837,0.31818443536758423,-0.048716504126787186
1660273596434246700,0.27724658203125,-0.45318564772605896,0.31146490573883057,-0.023060163483023643
1660273596436246500,0.27924658203125,-0.4501313269138336,0.29313895106315613,0.02825251780450344
1660273596438246700,0.28124658203125,-0.4513530433177948,0.26137396693229675,0.07956519722938538
1660273596440247000,0.2832470703125,-0.4507421851158142,0.2442697435617447,0.10155634582042694
1660273596442248000,0.285248046875,-0.44890961050987244,0.20212003588676453,0.1485929638147354
1660273596444247600,0.28724755859375,-0.449520468711853,0.1471421718597412,0.19685132801532745
1660273596446247700,0.28924755859375,-0.4501313269138336,0.11659890413284302,0.21823160350322723
1660273596448247600,0.29124755859375,-0.45807257294654846,0.053068917244672775,0.2603813111782074
1660273596450247700,0.29324755859375,-0.4715116024017334,-0.020234910771250725,0.30253100395202637
1660273596452247600,0.29524755859375,-0.47884199023246765,-0.05871942266821861,0.3245221674442291
1660273596454247700,0.29724755859375,-0.5014439821243286,-0.13874277472496033,0.36422839760780334
1660273596456247600,0.29924755859375,-0.5185482501983643,-0.22426390647888184,0.40454551577568054
1660273596458247400,0.301247314453125,-0.5258786082267761,-0.26824620366096497,0.42348232865333557
1660273596460246800,0.303246826171875,-0.6144540905952454,-0.4136321246623993,0.5022839307785034
1660273596462246000,0.305245849609375,-0.6278930902481079,-0.41607558727264404,0.5083925724029541
1660273596464245000,0.307244873046875,-0.6278930902481079,-0.41607558727264404,0.5083925724029541
1660273596466244400,0.309244384765625,-0.6278930902481079,-0.41607558727264404,0.5083925724029541
1660273596468244200,0.311244140625,-0.6278930902481079,-0.4221842288970947,0.5132794976234436
1660273596470244400,0.313244384765625,-0.6608798503875732,-0.4191299080848694,0.5169447064399719
1660273596472244200,0.315244140625,-0.6938665509223938,-0.41668644547462463,0.5254968404769897
1660273596474244400,0.317244384765625,-0.7121925354003906,-0.4087451994419098,0.5285511612892151
1660273596476244500,0.319244384765625,-0.7476227283477783,-0.3739258944988251,0.5224425196647644
1660273596478244400,0.321244384765625,-0.7842746376991272,-0.348880410194397,0.5193881988525391
1660273596480245200,0.323245361328125,-0.8026005625724792,-0.3372739851474762,0.5193881988525391
1660273596482246100,0.32524609375,-0.8325329422950745,-0.33055445551872253,0.5212207436561584
1660273596484247000,0.3272470703125,-0.8649088144302368,-0.33483052253723145,0.5212207436561584
1660273596486248000,0.329248046875,-0.8795695900917053,-0.34582608938217163,0.5291619896888733
1660273596488247800,0.331247802734375,-0.904615044593811,-0.3727041482925415,0.5322163701057434
1660273596490247700,0.33324755859375,-0.9235519170761108,-0.4026365578174591,0.5364924073219299
1660273596492247800,0.335247802734375,-0.9369909167289734,-0.4136321246623993,0.5383250117301941
1660273596494247700,0.33724755859375,-0.9577603340148926,-0.4350124001502991,0.5316054821014404
1660273596496247600,0.33924755859375,-0.979751467704773,-0.4576144218444824,0.5206099152565002
1660273596498247700,0.34124755859375,-0.9883036017417908,-0.47044259309768677,0.5157229900360107
1660273596500247000,0.3432470703125,-1.0249555110931396,-0.5718462467193604,0.4473060667514801
1660273596502246400,0.345246337890625,-1.0231229066848755,-0.5822309255599976,0.4473060667514801
1660273596504245500,0.34724560546875,-1.0231229066848755,-0.5822309255599976,0.4473060667514801
1660273596506244600,0.34924462890625,-1.0170142650604248,-0.5846744179725647,0.44364088773727417
1660273596508243700,0.35124365234375,-1.0170142650604248,-0.5846744179725647,0.44364088773727417
1660273596510243800,0.353243896484375,-1.0170142650604248,-0.5846744179725647,0.44364088773727417
1660273596512244200,0.355244140625,-1.0054078102111816,-0.5791766047477722,0.44547349214553833
1660273596514244000,0.357244140625,-0.9773080348968506,-0.5718462467193604,0.4466952085494995
1660273596516243700,0.35924365234375,-0.9620364308357239,-0.5694027543067932,0.4479169547557831
1660273596518243800,0.361243896484375,-0.9296605587005615,-0.5522985458374023,0.45402559638023376
1660273596520243700,0.36324365234375,-0.8899543285369873,-0.5382486581802368,0.4674646258354187
1660273596522243800,0.365243896484375,-0.8691849112510681,-0.5345834493637085,0.4784601926803589
1660273596524243700,0.36724365234375,-0.8197047710418701,-0.5229769945144653,0.5041165351867676
1660273596526243800,0.369243896484375,-0.7745007872581482,-0.5083162188529968,0.5316054821014404
1660273596528243700,0.37124365234375,-0.7482335567474365,-0.500374972820282,0.5493205785751343
1660273596530243800,0.373243896484375,-0.6963100433349609,-0.4881576895713806,0.5896376967430115
1660273596532243700,0.37524365234375,-0.6425538659095764,-0.48082730174064636,0.6354525685310364
1660273596534243800,0.377243896484375,-0.6138432025909424,-0.4826599061489105,0.6629415154457092
1660273596536243700,0.37924365234375,-0.5564218759536743,-0.4838816225528717,0.7203628420829773
1660273596538243800,0.381243896484375,-0.5020548701286316,-0.5132031440734863,0.783892810344696
1660273596540241200,0.3832412109375,-0.4501313269138336,-0.5767331719398499,0.8602510094642639
1660273596542241300,0.3852412109375,-0.42752930521965027,-0.6249914765357971,0.9024006724357605
1660273596544241200,0.3872412109375,-0.3853796124458313,-0.7410559058189392,0.9952521920204163
1660273596546241300,0.3892412109375,-0.36827537417411804,-0.8113054037094116,1.04289972782135
1660273596548241400,0.391241455078125,-0.34261903166770935,-0.9493609666824341,1.135140299797058
1660273596550241300,0.3932412109375,-0.3291800022125244,-1.0861947536468506,1.221272349357605
1660273596552241400,0.395241455078125,-0.3285691440105438,-1.1533899307250977,1.2609785795211792
1660273596554241500,0.397241455078125,-0.34139731526374817,-1.281060814857483,1.3251193761825562
1660273596556241400,0.399241455078125,-0.37255144119262695,-1.4032338857650757,1.3739886283874512
1660273596558241500,0.401241455078125,-0.3945426046848297,-1.4655420780181885,1.3941471576690674
1660273596560241700,0.40324169921875,-0.4568508565425873,-1.587104320526123,1.419803500175476
1660273596562241500,0.405241455078125,-0.534430742263794,-1.7080556154251099,1.4289665222167969
1660273596564241700,0.40724169921875,-0.5784130096435547,-1.7703638076782227,1.4326317310333252
1660273596566241500,0.409241455078125,-0.6779840588569641,-1.8858174085617065,1.4240796566009521
1660273596568241700,0.41124169921875,-0.7842746376991272,-1.9805015325546265,1.400255799293518
1660273596570241500,0.413241455078125,-0.8416959643363953,-2.014709949493408,1.3825408220291138
1660273596572241700,0.41524169921875,-0.9577603340148926,-2.0690770149230957,1.3397802114486694
1660273596574241500,0.417241455078125,-1.0707703828811646,-2.106950521469116,1.289689302444458
1660273596576241700,0.41924169921875,-1.1269700527191162,-2.1155025959014893,1.2628111839294434
1660273596578241800,0.42124169921875,-1.2277628183364868,-2.123443841934204,1.202946424484253
1660273596580241000,0.423240966796875,-1.3963615894317627,-2.1185569763183594,1.0752755403518677
1660273596582240000,0.425239990234375,-1.3963615894317627,-2.1185569763183594,1.0752755403518677
1660273596584239600,0.427239501953125,-1.4269047975540161,-2.114280939102173,1.0422887802124023
1660273596586239700,0.42923974609375,-1.476995825767517,-2.100231170654297,0.9744827747344971
1660273596588239600,0.431239501953125,-1.4989869594573975,-2.0941224098205566,0.9396634697914124
1660273596590239700,0.43323974609375,-1.5209780931472778,-2.0764074325561523,0.8724682927131653
1660273596592239900,0.435239990234375,-1.5289193391799927,-2.0489184856414795,0.8046622276306152
1660273596594239700,0.43723974609375,-1.5264759063720703,-2.034257650375366,0.7722864151000977
1660273596596240000,0.439239990234375,-1.5093716382980347,-1.9988274574279785,0.7063129544258118
1660273596598239700,0.44123974609375,-1.4812718629837036,-1.9548451900482178,0.6427829265594482
1660273596600240600,0.44324072265625,-1.4598915576934814,-1.9328539371490479,0.612850546836853
1660273596602240500,0.445240478515625,-1.4104114770889282,-1.8858174085617065,0.5535966157913208
1660273596604240600,0.44724072265625,-1.3474923372268677,-1.8320611715316772,0.5010622143745422
1660273596606240500,0.449240478515625,-1.314505696296692,-1.8094592094421387,0.4784601926803589
1660273596608240600,0.45124072265625,-1.23936927318573,-1.7612009048461914,0.43508878350257874
1660273596610240500,0.453240478515625,-1.1593458652496338,-1.7043904066085815,0.3972151279449463
1660273596612240600,0.45524072265625,-1.1184178590774536,-1.6744580268859863,0.380721777677536
1660273596614240500,0.457240478515625,-1.0377837419509888,-1.623145341873169,0.3507893681526184
1660273596616240400,0.459240478515625,-0.9571495056152344,-1.5693892240524292,0.3208569586277008
1660273596618240500,0.461240478515625,-0.9235519170761108,-1.5492305755615234,0.30741792917251587
1660273596620239600,0.463239501953125,-0.6816492676734924,-1.415451169013977,0.21395555138587952
1660273596622238700,0.46523876953125,-0.6816492676734924,-1.415451169013977,0.21395555138587952
1660273596624237800,0.46723779296875,-0.6816492676734924,-1.415451169013977,0.21395555138587952
1660273596626237000,0.46923681640625,-0.6816492676734924,-1.415451169013977,0.21395555138587952
1660273596628237000,0.471237060546875,-0.6633232831954956,-1.3977360725402832,0.20295998454093933
1660273596630237000,0.47323681640625,-0.6486625075340271,-1.38612961769104,0.19013181328773499
1660273596632237000,0.475237060546875,-0.6162866950035095,-1.3610841035842896,0.16569720208644867
1660273596634237000,0.47723681640625,-0.5991824269294739,-1.3311517238616943,0.14309518039226532
1660273596636237000,0.479237060546875,-0.5942955017089844,-1.3152692317962646,0.1333213448524475
1660273596638237200,0.4812373046875,-0.5894085764884949,-1.2877802848815918,0.11194105446338654
1660273596640237800,0.48323779296875,-0.5869651436805725,-1.2511284351348877,0.09117163717746735
1660273596642238700,0.48523876953125,-0.5863542556762695,-1.2291371822357178,0.08506298810243607
1660273596644239000,0.487239013671875,-0.5949063897132874,-1.1882092952728271,0.07040221989154816
1660273596646239000,0.489239013671875,-0.6004042029380798,-1.12101411819458,0.04596760869026184
1660273596648239000,0.491239013671875,-0.601625919342041,-1.0739774703979492,0.023976460099220276
1660273596650239000,0.493239013671875,-0.6040693521499634,-0.9334784746170044,-0.04077525436878204
1660273596652238800,0.49523876953125,-0.5949063897132874,-0.6848562955856323,-0.17027868330478668
1660273596654239000,0.497239013671875,-0.5857434272766113,-0.5089271068572998,-0.26740625500679016
1660273596656238800,0.49923876953125,-0.5613088011741638,-0.12835806608200073,-0.49464812874794006
1660273596658239000,0.501239013671875,-0.5393176674842834,0.16485725343227386,-0.6876815557479858
1660273596660238000,0.503238037109375,-0.48372891545295715,0.7415140271186829,-0.9277516007423401
1660273596662237200,0.5052373046875,-0.48372891545295715,0.7415140271186829,-0.9277516007423401
1660273596664236300,0.507236328125,-0.48372891545295715,0.7415140271186829,-0.9277516007423401
1660273596666235400,0.5092353515625,-0.48372891545295715,0.7415140271186829,-0.9277516007423401
1660273596668235300,0.5112353515625,-0.45807257294654846,0.8307003974914551,-0.9479101300239563
1660273596670235400,0.5132353515625,-0.39881864190101624,1.0029643774032593,-0.983951210975647
1660273596672235500,0.515235595703125,-0.3639993369579315,1.0719921588897705,-1.0016663074493408
1660273596674235400,0.5172353515625,-0.3041345477104187,1.1770609617233276,-1.0309878587722778
1660273596676235500,0.519235595703125,-0.24976752698421478,1.2302062511444092,-1.040150761604309
1660273596678235400,0.5212353515625,-0.22288945317268372,1.2430343627929688,-1.040150761604309
1660273596680236300,0.523236328125,-0.17951802909374237,1.2521973848342896,-1.032820463180542
1660273596682237200,0.5252373046875,-0.13981178402900696,1.2399801015853882,-1.0193814039230347
1660273596684238300,0.52723828125,-0.12576188147068024,1.229595422744751,-1.0114401578903198
1660273596686239200,0.5292392578125,-0.10499246418476105,1.1966086626052856,-1.0016663074493408
1660273596688239000,0.531239013671875,-0.09460775554180145,1.1507937908172607,-0.9857838153839111
1660273596690239000,0.533239013671875,-0.09460775554180145,1.122083067893982,-0.9753990769386292
1660273596692239000,0.535239013671875,-0.0970512181520462,1.0561096668243408,-0.954018771648407
1660273596694239000,0.537239013671875,-0.10132727026939392,0.9840275645256042,-0.9271407127380371
1660273596696238800,0.53923876953125,-0.10499246418476105,0.9424887299537659,-0.9094256162643433
1660273596698239000,0.541239013671875,-0.11171197891235352,0.8588001728057861,-0.8752171993255615
1660273596700238000,0.543238037109375,-0.10132727026939392,0.4556291103363037,-0.6876815557479858
1660273596702237200,0.5452373046875,-0.10010553896427155,0.40370556712150574,-0.6577491760253906
1660273596704236300,0.547236328125,-0.09399688988924026,0.35300374031066895,-0.6302602291107178
1660273596706235400,0.5492353515625,-0.09399688988924026,0.35300374031066895,-0.6302602291107178
1660273596708234800,0.55123486328125,-0.09399688988924026,0.35300374031066895,-0.6302602291107178
1660273596710234000,0.553234130859375,-0.09399688988924026,0.35300374031066895,-0.6302602291107178
1660273596712234000,0.55523388671875,-0.0817795842885971,0.2528218626976013,-0.5771149396896362
1660273596714234000,0.557234130859375,-0.07750352472066879,0.20578522980213165,-0.5484042763710022
1660273596716234000,0.55923388671875,-0.06528622657060623,0.11904236674308777,-0.4934264123439789
1660273596718234000,0.561234130859375,-0.05795583873987198,0.04573853686451912,-0.44089198112487793
1660273596720233000,0.56323291015625,-0.05245805159211159,0.020693060010671616,-0.4170682430267334
1660273596722233000,0.565233154296875,-0.04940372705459595,0.005421428941190243,-0.3804163336753845
1660273596724227000,0.56722705078125,-0.10193813592195511,0.029245173558592796,-0.3614795207977295
1660273596726227200,0.569227294921875,-0.13003793358802795,0.0671188160777092,-0.3553708493709564
1660273596728227000,0.57122705078125,-0.17951802909374237,0.19234620034694672,-0.35842517018318176
1660273596730227200,0.573227294921875,-0.22166772186756134,0.3560580909252167,-0.36819902062416077
1660273596732226000,0.57522607421875,-0.2381610870361328,0.43363797664642334,-0.37491855025291443
1660273596734226200,0.57722607421875,-0.27175867557525635,0.5649740099906921,-0.3761402666568756
1660273596736226000,0.57922607421875,-0.3041345477104187,0.6590472459793091,-0.35292738676071167
1660273596738226200,0.58122607421875,-0.32246050238609314,0.6840927004814148,-0.3315471112728119
1660273596740223500,0.583223388671875,-0.37682750821113586,0.6566037535667419,-0.2515237629413605
1660273596742223400,0.585223388671875,-0.39332085847854614,0.6272822618484497,-0.21792617440223694
1660273596744223500,0.587223388671875,-0.41286855936050415,0.5967389941215515,-0.18860463798046112
1660273596746222600,0.58922265625,-0.449520468711853,0.5478697419166565,-0.12263119965791702
1660273596748222500,0.591222412109375,-0.4800637364387512,0.5222133994102478,-0.060322944074869156
1660273596750222600,0.59322265625,-0.4971679449081421,0.5197699666023254,-0.03405573591589928
1660273596752222700,0.59522265625,-0.5234351754188538,0.5209916830062866,0.014202617108821869
1660273596754222800,0.597222900390625,-0.5448154211044312,0.514272153377533,0.05207626149058342
1660273596756222700,0.59922265625,-0.5521458387374878,0.5044983625411987,0.06734789162874222
1660273596758222800,0.601222900390625,-0.5613088011741638,0.4751768112182617,0.09117163717746735
1660273596760223000,0.603222900390625,-0.5680283308029175,0.4305836260318756,0.098502017557621
1660273596762222800,0.605222900390625,-0.5655848383903503,0.40431642532348633,0.09972374886274338
1660273596764223000,0.607222900390625,-0.5686391592025757,0.349338561296463,0.09728029370307922
1660273596766223400,0.609223388671875,-0.5668066143989563,0.29130637645721436,0.09239336848258972
1660273596768223200,0.61122314453125,-0.5668066143989563,0.2583196461200714,0.08811730891466141
1660273596770223400,0.613223388671875,-0.562530517578125,0.1978439837694168,0.07590000331401825
1660273596772223200,0.61522314453125,-0.5558109879493713,0.137979194521904,0.06368270516395569
1660273596774223400,0.617223388671875,-0.5521458387374878,0.10804679244756699,0.058184914290905
1660273596776223200,0.61922314453125,-0.5423719882965088,0.0518471859395504,0.047800205647945404
1660273596778223400,0.621223388671875,-0.5368741750717163,-0.0006872233934700489,0.033139441162347794
1660273596780222500,0.623222412109375,-0.514272153377533,-0.08254316449165344,0.016035212203860283
1660273596782221600,0.6252216796875,-0.5106070041656494,-0.11247556656599045,0.01114829070866108
1660273596784222000,0.627221923828125,-0.5014439821243286,-0.14179709553718567,0.00809396430850029
1660273596786222600,0.62922265625,-0.491670161485672,-0.1698969006538391,0.005650503560900688
1660273596788222500,0.631222412109375,-0.4763985276222229,-0.2303725630044937,0.004428773187100887
1660273596790223000,0.63322314453125,-0.4605160355567932,-0.29329168796539307,0.004428773187100887
1660273596792223200,0.63522314453125,-0.449520468711853,-0.32383492588996887,0.006872233934700489
1660273596794223400,0.637223388671875,-0.4354705512523651,-0.38431060314178467,0.012980886735022068
1660273596796223200,0.63922314453125,-0.4220315217971802,-0.4441753923892975,0.01970040425658226
1660273596798223400,0.641223388671875,-0.4147011339664459,-0.4686099886894226,0.027641652151942253
1660273596800224300,0.643224365234375,-0.40737074613571167,-0.5180900692939758,0.04046982154250145
1660273596802224000,0.64522412109375,-0.4067598879337311,-0.558407187461853,0.05696318298578262
1660273596804225300,0.647225341796875,-0.40737074613571167,-0.5767331719398499,0.06551529467105865
1660273596806225700,0.6492255859375,-0.4116468131542206,-0.6023895144462585,0.0832303911447525
1660273596808225800,0.651225830078125,-0.42325326800346375,-0.6176611185073853,0.10277807712554932
1660273596810225700,0.6532255859375,-0.4305836260318756,-0.6256023645401001,0.1137736514210701
1660273596812225500,0.6552255859375,-0.44890961050987244,-0.6317110061645508,0.13148874044418335
1660273596814225700,0.6572255859375,-0.4702898859977722,-0.6347653269767761,0.1492038369178772
1660273596816225500,0.6592255859375,-0.47945284843444824,-0.6341544985771179,0.15714508295059204
1660273596818225400,0.661225341796875,-0.4977788031101227,-0.6317110061645508,0.17669276893138885
1660273596820224500,0.663224609375,-0.5490915179252625,-0.6207154393196106,0.20662516355514526
1660273596822223600,0.6652236328125,-0.5490915179252625,-0.6207154393196106,0.20662516355514526
1660273596824222700,0.66722265625,-0.5490915179252625,-0.6207154393196106,0.20662516355514526
1660273596826221600,0.6692216796875,-0.5490915179252625,-0.6207154393196106,0.20662516355514526
1660273596828221700,0.6712216796875,-0.5490915179252625,-0.6207154393196106,0.20357084274291992
1660273596830221800,0.673221923828125,-0.552756667137146,-0.6274349689483643,0.1944078654050827
1660273596832221700,0.6752216796875,-0.5521458387374878,-0.6408740282058716,0.1699732542037964
1660273596834221800,0.677221923828125,-0.5521458387374878,-0.6488152742385864,0.15531249344348907
1660273596836221400,0.679221435546875,-0.5503132343292236,-0.6738607287406921,0.11499538272619247
1660273596838221300,0.68122119140625,-0.54359370470047,-0.7080692052841187,0.06551529467105865
1660273596840222200,0.68322216796875,-0.5405393838882446,-0.7276168465614319,0.03497203439474106
1660273596842223000,0.68522314453125,-0.5332090258598328,-0.7740426063537598,-0.03222314268350601
1660273596844223000,0.687222900390625,-0.5222133994102478,-0.8277987837791443,-0.10919216275215149
1660273596846222600,0.68922265625,-0.5185482501983643,-0.8571202754974365,-0.15256360173225403
1660273596848222500,0.691222412109375,-0.5087743997573853,-0.9224829077720642,-0.2405281960964203
1660273596850222000,0.69322216796875,-0.4965570867061615,-0.98540198802948,-0.337044894695282
1660273596852222200,0.69522216796875,-0.491670161485672,-1.0171669721603394,-0.3865249752998352
1660273596854222000,0.69722216796875,-0.4812854528427124,-1.0861947536468506,-0.48548516631126404
1660273596856222200,0.69922216796875,-0.4702898859977722,-1.1521681547164917,-0.5899431109428406
1660273596858222000,0.70122216796875,-0.4715116024017334,-1.1845440864562988,-0.641255795955658
1660273596860221200,0.70322119140625,-0.48372891545295715,-1.3720797300338745,-0.9534079432487488
1660273596862220500,0.705220458984375,-0.4922810196876526,-1.3885730504989624,-0.9876163601875305
1660273596864218400,0.70721826171875,-0.4922810196876526,-1.3885730504989624,-0.9876163601875305
1660273596866217700,0.7092177734375,-0.4922810196876526,-1.3885730504989624,-0.9876163601875305
1660273596868217600,0.711217529296875,-0.49961140751838684,-1.3995686769485474,-1.0175487995147705
1660273596870217700,0.7132177734375,-0.5087743997573853,-1.4068989753723145,-1.0474811792373657
1660273596872217600,0.715217529296875,-0.5252677798271179,-1.4032338857650757,-1.08718740940094
1660273596874217700,0.7172177734375,-0.5472589135169983,-1.3818535804748535,-1.1128437519073486
1660273596876217900,0.7192177734375,-0.5576435923576355,-1.3616949319839478,-1.1183415651321411
1660273596878217700,0.7212177734375,-0.5802456140518188,-1.3097714185714722,-1.1195632219314575
1660273596880218600,0.723218505859375,-0.601015031337738,-1.2370784282684326,-1.1018482446670532
1660273596882219500,0.725219482421875,-0.6077345609664917,-1.194928765296936,-1.0908526182174683
1660273596884220400,0.727220458984375,-0.6260605454444885,-1.1008555889129639,-1.0505355596542358
1660273596886221300,0.72922119140625,-0.6407212615013123,-0.9933432340621948,-1.0004445314407349
1660273596888221200,0.73122119140625,-0.6468299627304077,-0.9371436238288879,-0.9699012637138367
1660273596890221000,0.733220947265625,-0.6541603207588196,-0.8168032169342041,-0.9045386910438538
1660273596892221200,0.73522119140625,-0.6584363579750061,-0.6927975416183472,-0.8287914395332336
1660273596894221000,0.737220947265625,-0.6572146415710449,-0.6286566853523254,-0.7921395301818848
1660273596896221700,0.7392216796875,-0.6553820371627808,-0.4997641146183014,-0.709061861038208
1660273596898221800,0.741221923828125,-0.6480516791343689,-0.3714824318885803,-0.6253733038902283
1660273596900221000,0.743220947265625,-0.5778021812438965,0.10621419548988342,-0.29367345571517944
1660273596902220000,0.745219970703125,-0.5674174427986145,0.1575268805027008,-0.25702154636383057
1660273596904219400,0.747219482421875,-0.552756667137146,0.208839550614357,-0.22342395782470703
1660273596906218800,0.74921875,-0.552756667137146,0.208839550614357,-0.22342395782470703
1660273596908218000,0.751218017578125,-0.552756667137146,0.208839550614357,-0.22342395782470703
1660273596910217000,0.753217041015625,-0.552756667137146,0.208839550614357,-0.22342395782470703
1660273596912217000,0.755217041015625,-0.5411502718925476,0.2583196461200714,-0.18860463798046112
1660273596914217000,0.757217041015625,-0.5118287205696106,0.35239288210868835,-0.1281289905309677
1660273596916217000,0.759217041015625,-0.48433977365493774,0.439746618270874,-0.07681630551815033
1660273596918217200,0.76121728515625,-0.4660138189792633,0.47945284843444824,-0.05421429127454758
1660273596920217000,0.763217041015625,-0.43424883484840393,0.5552001595497131,-0.01878410577774048
1660273596922216200,0.76521630859375,-0.40431642532348633,0.6236170530319214,0.00931569468230009
1660273596924215600,0.767215576171875,-0.3866013288497925,0.6559929251670837,0.020311269909143448
1660273596926215200,0.769215087890625,-0.35300374031066895,0.7073056101799011,0.032528575509786606
1660273596928215000,0.771215087890625,-0.31696268916130066,0.7518987655639648,0.035582900047302246
1660273596930215000,0.77321484375,-0.3004693388938904,0.7702246904373169,0.03191770985722542
1660273596932214500,0.775214599609375,-0.26748260855674744,0.7995462417602539,0.024587325751781464
1660273596934214400,0.77721435546875,-0.23205243051052094,0.8148179054260254,0.011759156361222267
1660273596936214300,0.77921435546875,-0.21555908024311066,0.8184830546379089,0.005039638374000788
1660273596938214400,0.78121435546875,-0.18073976039886475,0.8197047710418701,-0.01572977937757969
1660273596940211700,0.783211669921875,-0.13125966489315033,0.7952702045440674,-0.052381694316864014
1660273596942211800,0.7852119140625,-0.13125966489315033,0.7952702045440674,-0.052381694316864014
1660273596944211700,0.787211669921875,-0.10193813592195511,0.7738898992538452,-0.07498370856046677
1660273596946211800,0.7892119140625,-0.06956227868795395,0.7427358031272888,-0.09941831976175308
1660273596948211700,0.791211669921875,-0.05734497308731079,0.7262424230575562,-0.10919216275215149
1660273596950211000,0.793211181640625,-0.029856039211153984,0.6865361928939819,-0.1293507218360901
1660273596952211000,0.7952109375,-0.002367102773860097,0.6443864703178406,-0.14645494520664215
1660273596954210800,0.7972109375,0.00985020212829113,0.6217844486236572,-0.15500704944133759
1660273596956211000,0.7992109375,0.031841352581977844,0.5753586888313293,-0.16539175808429718
1660273596958210800,0.8012109375,0.0544433668255806,0.5234351754188538,-0.1745547503232956
1660273596960210700,0.803210693359375,0.06238461285829544,0.4971679449081421,-0.17516560852527618
1660273596962210800,0.8052109375,0.08254316449165344,0.44341179728507996,-0.18249599635601044
1660273596964210700,0.807210693359375,0.10209085047245026,0.391488254070282,-0.18127426505088806
1660273596966210600,0.80921044921875,0.1100321039557457,0.3639993369579315,-0.1788308024406433
1660273596968210700,0.811210693359375,0.12469286471605301,0.3157409727573395,-0.17638733983039856
1660273596970210600,0.81321044921875,0.13752104341983795,0.26687175035476685,-0.1696678251028061
1660273596972210400,0.81521044921875,0.144851416349411,0.24488060176372528,-0.1696678251028061
1660273596974210600,0.81721044921875,0.15767958760261536,0.19906571507453918,-0.16111570596694946
1660273596976210400,0.81921044921875,0.1607339233160019,0.15691600739955902,-0.16172657907009125
1660273596978210300,0.821210205078125,0.16867516934871674,0.13859005272388458,-0.15561792254447937
1660273596980209400,0.82320947265625,0.17356209456920624,0.06345362961292267,-0.1488984078168869
1660273596982208800,0.825208740234375,0.17356209456920624,0.06345362961292267,-0.1488984078168869
1660273596984208600,0.827208740234375,0.1711186319589615,0.04573853686451912,-0.14767667651176453
1660273596986208800,0.829208740234375,0.16806429624557495,0.013362676836550236,-0.14706580340862274
1660273596988208600,0.831208740234375,0.16256651282310486,-0.0012980886967852712,-0.14584407210350037
1660273596990208800,0.833208740234375,0.15645785629749298,-0.02695442922413349,-0.14767667651176453
1660273596992209000,0.835208984375,0.14118622243404388,-0.04894557595252991,-0.1488984078168869
1660273596994208800,0.837208740234375,0.13446670770645142,-0.05871942266821861,-0.1495092660188675
1660273596996209000,0.839208984375,0.11919508129358292,-0.07093672454357147,-0.15134187042713165
1660273596998209000,0.841208984375,0.09903652966022491,-0.08254316449165344,-0.15073099732398987
1660273597000209700,0.843209716796875,0.084375761449337,-0.08193229883909225,-0.15012013912200928
1660273597002209800,0.845209716796875,0.07399105280637741,-0.08009970188140869,-0.15073099732398987
1660273597004209700,0.847209716796875,0.05688682571053505,-0.07032585889101028,-0.15073099732398987
1660273597006209500,0.84920947265625,0.04772384837269783,-0.064217209815979,-0.15012013912200928
1660273597008209700,0.851209716796875,0.031230485066771507,-0.044058654457330704,-0.1495092660188675
1660273597010210300,0.853210205078125,0.01412625890225172,-0.01840231567621231,-0.14523321390151978
1660273597012210200,0.855210205078125,0.008017606101930141,-0.0019089538836851716,-0.14767667651176453
1660273597014210000,0.8572099609375,-0.006032294128090143,0.029245173558592796,-0.1440114825963974
1660273597016210200,0.859210205078125,-0.01702786795794964,0.06956227868795395,-0.1391245573759079
1660273597018210000,0.8612099609375,-0.021303925663232803,0.08849909901618958,-0.13668109476566315
1660273597020209400,0.86320947265625,-0.04512767121195793,0.2332741618156433,-0.11468994617462158
1660273597022208500,0.86520849609375,-0.04512767121195793,0.2332741618156433,-0.11468994617462158
1660273597024207600,0.86720751953125,-0.047571130096912384,0.2528218626976013,-0.11041389405727386
1660273597026206700,0.869206787109375,-0.047571130096912384,0.2528218626976013,-0.11041389405727386
1660273597028207000,0.87120703125,-0.04940372705459595,0.27298039197921753,-0.10919216275215149
1660273597030207200,0.873207275390625,-0.05123632401227951,0.29313895106315613,-0.10186178237199783
1660273597032207000,0.87520703125,-0.04940372705459595,0.3291800022125244,-0.09025534242391586
1660273597034207500,0.87720751953125,-0.047571130096912384,0.36155587434768677,-0.0780380368232727
1660273597036207400,0.879207275390625,-0.04329507425427437,0.3749949038028717,-0.07070764899253845
1660273597038207500,0.88120751953125,-0.04085161164402962,0.3994295001029968,-0.05971207842230797
1660273597040208100,0.8832080078125,-0.0365755558013916,0.420809805393219,-0.04199698567390442
1660273597042209000,0.885208984375,-0.032910365611314774,0.4311945140361786,-0.037110064178705215
1660273597044209700,0.887209716796875,-0.027412578463554382,0.4458552598953247,-0.01572977937757969
1660273597049015800,0.892015869140625,-0.020082194358110428,0.46418121457099915,0.004428773187100887
1660273597051016000,0.894015869140625,-0.0164170041680336,0.46906813979148865,0.014202617108821869
1660273597053015800,0.896015869140625,-0.007864889688789845,0.47884199023246765,0.03680463135242462
1660273597055015700,0.898015625,0.0037415495608001947,0.48983755707740784,0.062460970133543015
1660273597057015800,0.900015869140625,0.007406740915030241,0.4922810196876526,0.07528914511203766
1660273597059015700,0.902015625,0.022067507728934288,0.5002222657203674,0.1033889427781105
1660273597061015600,0.904015625,0.031841352581977844,0.5008331537246704,0.13087788224220276
1660273597063015000,0.906014892578125,0.07215845584869385,0.46295949816703796,0.22739458084106445
1660273597065014000,0.908013916015625,0.07215845584869385,0.46295949816703796,0.22739458084106445
1660273597067013000,0.91001318359375,0.07215845584869385,0.46295949816703796,0.22739458084106445
1660273597069012200,0.91201220703125,0.07215845584869385,0.46295949816703796,0.22739458084106445
1660273597071012400,0.914012451171875,0.07826711237430573,0.45379650592803955,0.2402227520942688
1660273597073012200,0.91601220703125,0.08804095536470413,0.43424883484840393,0.26343563199043274
1660273597075012000,0.91801220703125,0.09292787313461304,0.4214206635951996,0.2756529450416565
1660273597077013200,0.92001318359375,0.10025826096534729,0.3969860374927521,0.29886582493782043
1660273597079013400,0.922013427734375,0.10942123830318451,0.37194058299064636,0.3214678466320038
1660273597081013200,0.92401318359375,0.11308643221855164,0.359112411737442,0.33368512988090515
1660273597083014100,0.92601416015625,0.11797334998846054,0.3285691440105438,0.34895676374435425
1660273597085014800,0.928014892578125,0.12896892428398132,0.29680415987968445,0.36850446462631226
1660273597087015700,0.930015625,0.1308015137910843,0.27847820520401,0.3770565688610077
1660273597089016600,0.9320166015625,0.13813190162181854,0.24060454964637756,0.3874412775039673
1660273597091016200,0.93401611328125,0.1405753642320633,0.19540052115917206,0.39965859055519104
1660273597093016300,0.936016357421875,0.14301882684230804,0.1734093725681305,0.40454551577568054
1660273597095016200,0.93801611328125,0.14179709553718567,0.12576188147068024,0.40943244099617004
1660273597097016000,0.94001611328125,0.14240795373916626,0.07628180086612701,0.4167627990245819
1660273597099016200,0.94201611328125,0.14301882684230804,0.05245805159211159,0.41859540343284607
1660273597101016000,0.94401611328125,0.14301882684230804,0.008475755341351032,0.42348232865333557
1660273597103015200,0.94601513671875,0.12835806608200073,-0.12591460347175598,0.4625777006149292
1660273597105014500,0.9480146484375,0.12835806608200073,-0.12591460347175598,0.4625777006149292
1660273597107013000,0.95001318359375,0.12591460347175598,-0.13446670770645142,0.47051894664764404
1660273597109012700,0.9520126953125,0.12591460347175598,-0.13446670770645142,0.47051894664764404
1660273597111011800,0.95401171875,0.12591460347175598,-0.13446670770645142,0.47051894664764404
1660273597113011200,0.95601123046875,0.12469286471605301,-0.13935363292694092,0.47540587186813354
1660273597115011000,0.958010986328125,0.12591460347175598,-0.14912748336791992,0.4815145432949066
1660273597117011000,0.960010986328125,0.12896892428398132,-0.15340353548526764,0.48945578932762146
1660273597119010600,0.962010498046875,0.1301906555891037,-0.16256651282310486,0.5022839307785034
1660273597121010700,0.9640107421875,0.13385584950447083,-0.16623170673847198,0.5132794976234436
1660273597123010600,0.966010498046875,0.13324497640132904,-0.1711186319589615,0.5218316316604614
1660273597125010700,0.9680107421875,0.14118622243404388,-0.1711186319589615,0.5371032953262329
1660273597127004700,0.970004638671875,0.15157094597816467,-0.16745343804359436,0.5517640113830566
1660273597129004500,0.972004638671875,0.15767958760261536,-0.1650099754333496,0.5566509366035461
1660273597131004700,0.974004638671875,0.16684256494045258,-0.15829046070575714,0.5682573914527893
1660273597133004500,0.976004638671875,0.18333593010902405,-0.14851661026477814,0.5810855627059937
1660273597135004700,0.978004638671875,0.1906663179397583,-0.14179709553718567,0.5853615999221802
1660273597137004500,0.980004638671875,0.20288361608982086,-0.12835806608200073,0.593913733959198
1660273597139004700,0.982004638671875,0.216322660446167,-0.10758864134550095,0.603076696395874
1660273597141004500,0.984004638671875,0.2260964959859848,-0.09598220139741898,0.603687584400177
1660273597143002000,0.986002197265625,0.24564418196678162,-0.05994115397334099,0.6073527932167053
1660273597145002200,0.988002197265625,0.24869851768016815,-0.044058654457330704,0.6085745096206665
1660273597147002400,0.99000244140625,0.25297456979751587,-0.031841352581977844,0.6079636216163635
1660273597149002500,0.99200244140625,0.2615266740322113,0.0011453722836449742,0.6055201888084412
1660273597151002400,0.99400244140625,0.2719113826751709,0.03107776865363121,0.5981897711753845
1660273597153002500,0.99600244140625,0.27374398708343506,0.046960264444351196,0.5963571667671204
1660273597155001900,0.998001953125,0.28290697932243347,0.07811439037322998,0.5890268087387085
1660273597157002000,1.000001953125,0.2859613001346588,0.10865765810012817,0.5780312418937683
1660273597159001900,1.002001953125,0.29023733735084534,0.12331841886043549,0.5725334286689758
1660273597161002000,1.004001953125,0.2963460087776184,0.15141822397708893,0.5621487498283386
1660273597163002000,1.006002197265625,0.3012329339981079,0.17524196207523346,0.5480988621711731
1660273597165002200,1.008002197265625,0.3030655086040497,0.18562667071819305,0.5438227653503418
1660273597167002000,1.010002197265625,0.31039589643478394,0.20578522980213165,0.5291619896888733
1660273597169002200,1.012002197265625,0.31955888867378235,0.22105686366558075,0.5169447064399719
1660273597171002000,1.014002197265625,0.32383492588996887,0.22777637839317322,0.5108360648155212
1660273597173002200,1.016002197265625,0.3311653137207031,0.23632849752902985,0.49617528915405273
1660273597175002000,1.018002197265625,0.3360522389411926,0.23999367654323578,0.47968193888664246
1660273597177002200,1.020002197265625,0.33971744775772095,0.24182628095149994,0.4729624092578888
1660273597179002000,1.022002197265625,0.3421608805656433,0.2387719452381134,0.4576907753944397
1660273597181002200,1.024002197265625,0.35010215640068054,0.22777637839317322,0.4430300295352936
1660273597183001300,1.02600146484375,0.35498905181884766,0.1929570585489273,0.41004329919815063
1660273597185000400,1.02800048828125,0.35498905181884766,0.1929570585489273,0.41004329919815063
1660273597187000800,1.030000732421875,0.358654260635376,0.18012888729572296,0.4014911949634552
1660273597189000700,1.032000732421875,0.35987597703933716,0.168522447347641,0.3917173445224762
1660273597191000800,1.034000732421875,0.36048686504364014,0.13614659011363983,0.3764457106590271
1660273597193001000,1.0360009765625,0.36048686504364014,0.10071640461683273,0.35750889778137207
1660273597195000800,1.038000732421875,0.35987597703933716,0.08116871863603592,0.34895676374435425
1660273597197001000,1.0400009765625,0.3580434024333954,0.035353824496269226,0.3269656300544739
1660273597199000600,1.04200048828125,0.3562107980251312,-0.013515393249690533,0.30375275015830994
1660273597201000700,1.044000732421875,0.3537673354148865,-0.03856086730957031,0.290313720703125
1660273597203001600,1.046001708984375,0.348880410194397,-0.09170614182949066,0.26832255721092224
1660273597205001500,1.04800146484375,0.3427717685699463,-0.1497383415699005,0.23594669997692108
1660273597207001600,1.050001708984375,0.3384957015514374,-0.17844900488853455,0.22189679741859436
1660273597209001500,1.05200146484375,0.3323870599269867,-0.23525947332382202,0.19562959671020508
1660273597211001000,1.0540009765625,0.3220023512840271,-0.2920699417591095,0.16691893339157104
1660273597213001200,1.056001220703125,0.3177262842655182,-0.31589367985725403,0.15103642642498016
1660273597215001600,1.058001708984375,0.30856332182884216,-0.36537376046180725,0.12049316614866257
1660273597217001700,1.060001708984375,0.296956866979599,-0.4093560576438904,0.09422596544027328
1660273597219001600,1.062001708984375,0.2926807999610901,-0.43012550473213196,0.08261952549219131
1660273597221001700,1.064001708984375,0.2822960913181305,-0.46066874265670776,0.058795779943466187
1660273597223000600,1.06600048828125,0.23892466723918915,-0.520533561706543,-0.019394971430301666
1660273597225000000,1.068,0.23892466723918915,-0.520533561706543,-0.019394971430301666
1660273597226999000,1.0699990234375,0.23892466723918915,-0.520533561706543,-0.019394971430301666
1660273597228998400,1.071998291015625,0.23892466723918915,-0.520533561706543,-0.019394971430301666
1660273597230998500,1.07399853515625,0.23403774201869965,-0.51992267370224,-0.031001411378383636
1660273597232998400,1.075998291015625,0.21998783946037292,-0.5193118453025818,-0.048716504126787186
1660273597234998500,1.07799853515625,0.2053270787000656,-0.5113705396652222,-0.07070764899253845
1660273597236998400,1.079998291015625,0.19738583266735077,-0.5058727860450745,-0.07681630551815033
1660273597238998500,1.08199853515625,0.17783814668655396,-0.4899902939796448,-0.09941831976175308
1660273597240998400,1.083998291015625,0.15951219201087952,-0.4747186601161957,-0.12140946835279465
1660273597242999300,1.085999267578125,0.1497383415699005,-0.4649448096752167,-0.13484850525856018
1660273597245000200,1.088000244140625,0.12835806608200073,-0.4472297132015228,-0.15622878074645996
1660273597247000300,1.090000244140625,0.1051451787352562,-0.4276820421218872,-0.18188512325286865
1660273597249000200,1.092000244140625,0.09414960443973541,-0.4191299080848694,-0.19593502581119537
1660273597251000300,1.094000244140625,0.07032585889101028,-0.4020256996154785,-0.2252565622329712
1660273597253000200,1.096000244140625,0.04711298272013664,-0.3830888569355011,-0.2539672255516052
1660273597255000000,1.098,0.034895677119493484,-0.37087157368659973,-0.2643519341945648
1660273597257000200,1.100000244140625,0.007406740915030241,-0.3513238728046417,-0.2942843437194824
1660273597259000300,1.102000244140625,-0.010919216088950634,-0.3329979181289673,-0.32360586524009705
1660273597261000400,1.10400048828125,-0.024358252063393593,-0.3262783885002136,-0.337044894695282
1660273597262999600,1.10599951171875,-0.11293371021747589,-0.2877938747406006,-0.437226802110672
1660273597264998700,1.10799853515625,-0.11293371021747589,-0.2877938747406006,-0.437226802110672
1660273597266997800,1.109997802734375,-0.11293371021747589,-0.2877938747406006,-0.437226802110672
1660273597268996900,1.111996826171875,-0.11293371021747589,-0.2877938747406006,-0.437226802110672
1660273597270997200,1.113997314453125,-0.12209668755531311,-0.28412869572639465,-0.4482223689556122
1660273597272996600,1.11599658203125,-0.13125966489315033,-0.2853504419326782,-0.45921793580055237
1660273597274996700,1.117996826171875,-0.1483639031648636,-0.2816852331161499,-0.4818199574947357
1660273597276996600,1.11999658203125,-0.16546812653541565,-0.28351783752441406,-0.5013676285743713
1660273597278996700,1.121996826171875,-0.1727984994649887,-0.28351783752441406,-0.5105306506156921
1660273597280996900,1.123996826171875,-0.1886810064315796,-0.2865721583366394,-0.5294674634933472
1660273597282997800,1.125997802734375,-0.2027309089899063,-0.2865721583366394,-0.547182559967041
1660273597284998400,1.127998291015625,-0.20578522980213165,-0.28840476274490356,-0.5545129179954529
1660273597286999000,1.1299990234375,-0.21555908024311066,-0.2963460087776184,-0.5691736936569214
1660273597289000000,1.132,-0.22594378888607025,-0.2981785833835602,-0.5801692605018616
1660273597290999800,1.133999755859375,-0.22960896790027618,-0.3018437922000885,-0.585667073726654
1660273597293000000,1.136,-0.23510676622390747,-0.30367639660835266,-0.5887213945388794
1660273597294999300,1.137999267578125,-0.23999367654323578,-0.3030655086040497,-0.5923865437507629
1660273597296999400,1.13999951171875,-0.24060454964637756,-0.30428725481033325,-0.5905539989471436
1660273597298999300,1.141999267578125,-0.2442697435617447,-0.3024546504020691,-0.585667073726654
1660273597300999400,1.14399951171875,-0.24060454964637756,-0.296956866979599,-0.5783366560935974
1660273597302998500,1.14599853515625,-0.22472205758094788,-0.2865721583366394,-0.5233588218688965
1660273597304998000,1.147997802734375,-0.21983513236045837,-0.2877938747406006,-0.5148066878318787
1660273597306997000,1.1499970703125,-0.21616993844509125,-0.28901562094688416,-0.5032002329826355
1660273597308996000,1.15199609375,-0.21616993844509125,-0.28901562094688416,-0.5032002329826355
1660273597310995200,1.1539951171875,-0.21616993844509125,-0.28901562094688416,-0.5032002329826355
1660273597312994600,1.15599462890625,-0.21616993844509125,-0.28901562094688416,-0.5032002329826355
1660273597314994400,1.157994384765625,-0.21189388632774353,-0.2920699417591095,-0.4970915913581848
1660273597316994600,1.15999462890625,-0.20517437160015106,-0.296956866979599,-0.4781547784805298
1660273597318994000,1.161993896484375,-0.19601137936115265,-0.30489811301231384,-0.4622722864151001
1660273597320994000,1.163994140625,-0.19112446904182434,-0.30978503823280334,-0.45494189858436584
1660273597322994000,1.165993896484375,-0.18745927512645721,-0.32078060507774353,-0.4378376603126526
1660273597324981000,1.16798095703125,-0.17524196207523346,-0.32933273911476135,-0.42378777265548706
1660273597326981000,1.169981201171875,-0.17218764126300812,-0.3281109929084778,-0.417679101228714
1660273597328981000,1.17198095703125,-0.16485725343227386,-0.33421963453292847,-0.4060726761817932
1660273597330981000,1.173981201171875,-0.15997034311294556,-0.33483052253723145,-0.39813143014907837
1660273597332981000,1.17598095703125,-0.15569427609443665,-0.33483052253723145,-0.395077109336853
1660273597334981000,1.177981201171875,-0.15141822397708893,-0.3323870599269867,-0.3920227587223053
1660273597336980200,1.179980224609375,-0.1483639031648636,-0.32505667209625244,-0.3914119005203247
1660273597338978600,1.181978515625,-0.14958561956882477,-0.3220023512840271,-0.3914119005203247
1660273597340978700,1.183978759765625,-0.15141822397708893,-0.3171154260635376,-0.39813143014907837
1660273597342976000,1.18597607421875,-0.15997034311294556,-0.3012329339981079,-0.4121813178062439
1660273597344976100,1.18797607421875,-0.15997034311294556,-0.3012329339981079,-0.4121813178062439
1660273597346976300,1.189976318359375,-0.17035505175590515,-0.28962647914886475,-0.42439863085746765
1660273597348976000,1.19197607421875,-0.18135061860084534,-0.27496573328971863,-0.43905940651893616
1660273597350975700,1.193975830078125,-0.18990273773670197,-0.2664135992527008,-0.4427245855331421
1660273597352975600,1.1959755859375,-0.20761781930923462,-0.24747678637504578,-0.4537201523780823
1660273597354975700,1.197975830078125,-0.22777637839317322,-0.22182044386863708,-0.46410486102104187
1660273597356975900,1.199975830078125,-0.23999367654323578,-0.20838139951229095,-0.46899178624153137
1660273597358976000,1.20197607421875,-0.26198482513427734,-0.1802816092967987,-0.4732678532600403
1660273597360976000,1.203975830078125,-0.2851977050304413,-0.14790575206279755,-0.4769330322742462
1660273597362976000,1.20597607421875,-0.3004693388938904,-0.1301906555891037,-0.4781547784805298
1660273597364975900,1.207975830078125,-0.3261256814002991,-0.0947604700922966,-0.4720461070537567
1660273597366976000,1.20997607421875,-0.3487277030944824,-0.055054228752851486,-0.4622722864151001
1660273597368975400,1.211975341796875,-0.3639993369579315,-0.03611740842461586,-0.45555275678634644
1660273597370975500,1.2139755859375,-0.38782307505607605,0.009697485715150833,-0.43967026472091675
1660273597372975400,1.215975341796875,-0.4104250967502594,0.0567341111600399,-0.41890084743499756
1660273597374975500,1.2179755859375,-0.42264237999916077,0.0817795842885971,-0.4066835343837738
1660273597376975400,1.219975341796875,-0.4415792226791382,0.13003793358802795,-0.3773620128631592
1660273597378975500,1.2219755859375,-0.45868343114852905,0.17524196207523346,-0.3425426781177521
1660273597380975600,1.2239755859375,-0.4647921025753021,0.19662225246429443,-0.32421672344207764
1660273597382974700,1.225974609375,-0.48311805725097656,0.26748260855674744,-0.2405281960964203
1660273597384974300,1.227974365234375,-0.48311805725097656,0.26748260855674744,-0.2405281960964203
1660273597386974200,1.22997412109375,-0.48372891545295715,0.2833651304244995,-0.21914790570735931
1660273597388974600,1.231974609375,-0.4873940944671631,0.3035236597061157,-0.17150041460990906
1660273597390973700,1.2339736328125,-0.48311805725097656,0.31207579374313354,-0.14706580340862274
1660273597392973800,1.235973876953125,-0.4812854528427124,0.3236822187900543,-0.0981965884566307
1660273597394973700,1.2379736328125,-0.4696790277957916,0.329790860414505,-0.04932736977934837
1660273597396974000,1.23997412109375,-0.45379650592803955,0.33223432302474976,-0.003512475173920393
1660273597398974500,1.241974365234375,-0.4421900808811188,0.3340669274330139,0.020922135561704636
1660273597400974300,1.243974365234375,-0.420198917388916,0.3291800022125244,0.06551529467105865
1660273597402976000,1.24597607421875,-0.39271000027656555,0.31818443536758423,0.10522153973579407
1660273597404975900,1.247975830078125,-0.3798818290233612,0.3096323311328888,0.12293662875890732
1660273597406976000,1.24997607421875,-0.3499494194984436,0.2894737720489502,0.15286903083324432
1660273597408976000,1.251975830078125,-0.320627897977829,0.26198482513427734,0.17669276893138885
1660273597410976000,1.25397607421875,-0.3053562641143799,0.2442697435617447,0.1846340149641037
1660273597412976000,1.25597607421875,-0.27725645899772644,0.20945042371749878,0.19624045491218567
1660273597414975700,1.257975830078125,-0.2491566687822342,0.1624137908220291,0.19624045491218567
1660273597416976000,1.259975830078125,-0.23693935573101044,0.13614659011363983,0.1944078654050827
1660273597418975700,1.261975830078125,-0.21067215502262115,0.07567093521356583,0.1846340149641037
1660273597420975600,1.2639755859375,-0.1880701333284378,0.013362676836550236,0.1595885455608368
1660273597422974700,1.265974609375,-0.1269836127758026,-0.21449005603790283,0.018478672951459885
1660273597424974000,1.26797412109375,-0.1269836127758026,-0.21449005603790283,0.018478672951459885
1660273597426973200,1.26997314453125,-0.1269836127758026,-0.21449005603790283,0.018478672951459885
1660273597428972800,1.271972900390625,-0.1269836127758026,-0.21449005603790283,0.018478672951459885
1660273597430972700,1.27397265625,-0.12209668755531311,-0.246865913271904,-0.010231993161141872
1660273597432972800,1.275972900390625,-0.11293371021747589,-0.3134502172470093,-0.0682641938328743
1660273597434973000,1.277972900390625,-0.10682506114244461,-0.34582608938217163,-0.09697485715150833
1660273597436972800,1.279972900390625,-0.10010553896427155,-0.40569087862968445,-0.16111570596694946
1660273597438973000,1.281972900390625,-0.09644035249948502,-0.46189048886299133,-0.22586742043495178
1660273597440972800,1.283972900390625,-0.0970512181520462,-0.4881576895713806,-0.2600758671760559
1660273597442973700,1.2859736328125,-0.09582948684692383,-0.5370268821716309,-0.3248275816440582
1660273597444974300,1.287974365234375,-0.0970512181520462,-0.5834526419639587,-0.3920227587223053
1660273597446974500,1.289974365234375,-0.09766208380460739,-0.6054438352584839,-0.4231768846511841
1660273597448974000,1.29197412109375,-0.09949467331171036,-0.6414848566055298,-0.48548516631126404
1660273597450975000,1.29397509765625,-0.10132727026939392,-0.6738607287406921,-0.546571671962738
1660273597452975000,1.29597509765625,-0.10377073287963867,-0.6921866536140442,-0.5716171264648438
1660273597454975000,1.29797509765625,-0.10804679244756699,-0.7117343544960022,-0.6253733038902283
1660273597456975000,1.29997509765625,-0.11049024760723114,-0.7331146597862244,-0.6711881756782532
1660273597458975000,1.30197509765625,-0.11293371021747589,-0.739834189414978,-0.6937901973724365
1660273597460975000,1.30397509765625,-0.1178206354379654,-0.7526623606681824,-0.7347181439399719
1660273597462973400,1.305973388671875,-0.15080735087394714,-0.719675600528717,-0.8239045143127441
1660273597464972800,1.307972900390625,-0.1532508134841919,-0.7056257128715515,-0.8281805515289307
1660273597466972000,1.309971923828125,-0.1581377387046814,-0.6891323328018188,-0.8294022679328918
1660273597468971000,1.311970947265625,-0.1581377387046814,-0.6891323328018188,-0.8294022679328918
1660273597470970000,1.31397021484375,-0.1581377387046814,-0.6891323328018188,-0.8294022679328918
1660273597472969200,1.31596923828125,-0.1581377387046814,-0.6891323328018188,-0.8294022679328918
1660273597474969600,1.317969482421875,-0.17096590995788574,-0.6500369906425476,-0.8239045143127441
1660273597476969700,1.3199697265625,-0.17463110387325287,-0.6249914765357971,-0.8184067010879517
1660273597478969300,1.32196923828125,-0.1886810064315796,-0.5706244707107544,-0.7970264554023743
1660273597480969500,1.323969482421875,-0.20150917768478394,-0.5083162188529968,-0.7640396952629089
1660273597482943500,1.325943603515625,-0.20578522980213165,-0.4741078019142151,-0.7487680912017822
1660273597484957400,1.32795751953125,-0.22166772186756134,-0.40630173683166504,-0.7023423314094543
1660273597486970400,1.329970458984375,-0.2283872365951538,-0.33910655975341797,-0.6565274000167847
1660273597488979200,1.331979248046875,-0.23755022883415222,-0.30367639660835266,-0.6272059082984924
1660273597490985700,1.33398583984375,-0.24732406437397003,-0.23831380903720856,-0.5697845816612244
1660273597492990700,1.33599072265625,-0.25221097469329834,-0.2059379518032074,-0.5416847467422485
1660273597494995200,1.3379951171875,-0.2644282877445221,-0.14851661026477814,-0.4763221740722656
1660273597496999000,1.3399990234375,-0.27175867557525635,-0.09353873878717422,-0.41340306401252747
1660273597499002000,1.342002197265625,-0.2742021381855011,-0.06788240373134613,-0.38408151268959045
1660273597501005000,1.344005126953125,-0.2796999216079712,-0.025121834129095078,-0.3168863356113434
1660273597503005200,1.346005126953125,-0.2992476224899292,0.10010553896427155,-0.08597928285598755
1660273597505005300,1.34800537109375,-0.3004693388938904,0.10926852375268936,-0.06459899991750717
1660273597507005200,1.350005126953125,-0.3004693388938904,0.1178206354379654,-0.04077525436878204
1660273597509005300,1.35200537109375,-0.3004693388938904,0.1178206354379654,-0.04077525436878204
1660273597511005700,1.354005615234375,-0.3004693388938904,0.1178206354379654,-0.04077525436878204
1660273597513007900,1.3560078125,-0.3004693388938904,0.1178206354379654,-0.04077525436878204
1660273597515010300,1.35801025390625,-0.30108019709587097,0.1227075532078743,-0.003512475173920393
1660273597517012000,1.360011962890625,-0.2998584806919098,0.12392928451299667,0.01237002108246088
1660273597519013400,1.362013427734375,-0.2955824136734009,0.1178206354379654,0.03985895588994026
1660273597521014800,1.364014892578125,-0.2943606972694397,0.10682506114244461,0.062460970133543015
1660273597523014700,1.3660146484375,-0.2906954884529114,0.09766208380460739,0.06979135423898697
1660273597525014800,1.368014892578125,-0.28153252601623535,0.07811439037322998,0.07956519722938538
1660273597527008800,1.3700087890625,-0.27298039197921753,0.056123245507478714,0.08384125679731369
1660273597529008600,1.372008544921875,-0.26565003395080566,0.04268420860171318,0.08445212244987488
1660273597531009500,1.374009521484375,-0.2534327208995819,0.018249599263072014,0.0832303911447525
1660273597533009400,1.376009521484375,-0.23999367654323578,-0.00862847175449133,0.07651086896657944
1660273597535009800,1.378009765625,-0.2332741618156433,-0.0190131813287735,0.07101308554410934
1660273597537010000,1.380010009765625,-0.2192242592573166,-0.04466952010989189,0.06062837690114975
1660273597539010000,1.382010009765625,-0.2033417671918869,-0.06482807546854019,0.044745877385139465
1660273597541010200,1.38401025390625,-0.19540052115917206,-0.07582364976406097,0.036193765699863434
1660273597543007500,1.386007568359375,-0.17524196207523346,-0.10575604438781738,0.0074830991216003895
1660273597545007600,1.388007568359375,-0.16607898473739624,-0.11308643221855164,-0.005345070734620094
1660273597547007700,1.3900078125,-0.15691600739955902,-0.12163854390382767,-0.016340645030140877
1660273597549008000,1.3920078125,-0.14103351533412933,-0.1356884390115738,-0.03527746722102165
1660273597551007700,1.3940078125,-0.12148582190275192,-0.14912748336791992,-0.057879481464624405
1660273597553007900,1.3960078125,-0.11354457587003708,-0.15401439368724823,-0.06887505948543549
1660273597555007700,1.3980078125,-0.10010553896427155,-0.16378824412822723,-0.08781187981367111
1660273597557008000,1.4000078125,-0.07933612167835236,-0.17295122146606445,-0.10552696883678436
1660273597559007700,1.4020078125,-0.0720057412981987,-0.1760055422782898,-0.1134682223200798
1660273597561007900,1.4040078125,-0.05367978289723396,-0.18394680321216583,-0.12996158003807068
1660273597563007700,1.4060078125,-0.03779728710651398,-0.18700112402439117,-0.14584407210350037
1660273597565008000,1.4080078125,-0.0316886343061924,-0.18944458663463593,-0.14767667651176453
1660273597567007700,1.4100078125,-0.013973542489111423,-0.19188804924488068,-0.1586722433567047
1660273597569007900,1.4120078125,-0.0011453722836449742,-0.19433151185512543,-0.17027868330478668
1660273597571007200,1.41400732421875,0.0037415495608001947,-0.1906663179397583,-0.17272214591503143
1660273597573007400,1.41600732421875,0.01595885492861271,-0.18944458663463593,-0.17638733983039856
1660273597575007200,1.41800732421875,0.026343563571572304,-0.1808924674987793,-0.18005253374576569
1660273597577006800,1.4200068359375,0.031230485066771507,-0.17844900488853455,-0.18005253374576569
1660273597579007000,1.422007080078125,0.03611740842461586,-0.1711186319589615,-0.1794416606426239
1660273597581007000,1.424007080078125,0.04222606122493744,-0.16195565462112427,-0.17638733983039856
1660273597583006200,1.426006103515625,0.04589125141501427,-0.14301882684230804,-0.164170041680336
1660273597585005300,1.42800537109375,0.04589125141501427,-0.14301882684230804,-0.164170041680336
1660273597587005700,1.430005615234375,0.04589125141501427,-0.13629931211471558,-0.16111570596694946
1660273597589005800,1.432005859375,0.04589125141501427,-0.13202324509620667,-0.15806138515472412
1660273597591005700,1.434005615234375,0.04589125141501427,-0.12163854390382767,-0.1495092660188675
1660273597593005800,1.436005859375,0.044058654457330704,-0.11552988737821579,-0.14217889308929443
1660273597595005700,1.438005615234375,0.04222606122493744,-0.1100321039557457,-0.13668109476566315
1660273597597005800,1.440005859375,0.04161519557237625,-0.10025826096534729,-0.12690725922584534
1660273597599005700,1.442005615234375,0.03856086730957031,-0.0898735523223877,-0.11652254313230515
1660273597601005600,1.444005615234375,0.037339139729738235,-0.08620835840702057,-0.11102475970983505
1660273597603006500,1.44600634765625,0.034895677119493484,-0.07521278411149979,-0.09758572280406952
1660273597605006300,1.44800634765625,0.03367394581437111,-0.06727153807878494,-0.0884227454662323
1660273597607006500,1.45000634765625,0.031230485066771507,-0.06055201590061188,-0.08109235763549805
1660273597609006300,1.45200634765625,0.02756529487669468,-0.04894557595252991,-0.06704246252775192
1660273597611006500,1.45400634765625,0.025732697919011116,-0.0391717329621315,-0.048105638474226
1660273597613006800,1.4560068359375,0.022067507728934288,-0.034895677119493484,-0.04260785132646561
1660273597615006700,1.4580068359375,0.017791450023651123,-0.026343563571572304,-0.025503624230623245
1660273597617007600,1.460007568359375,0.01290452852845192,-0.0214566420763731,-0.007788531947880983
1660273597619007700,1.4620078125,0.011071932502090931,-0.019624045118689537,-0.0010690141934901476
1660273597621007600,1.464007568359375,0.0019089538836851716,-0.014737123623490334,0.019089538604021072
1660273597623007000,1.466007080078125,-0.027412578463554382,0.0017562375869601965,0.09300423413515091
1660273597625006000,1.468006103515625,-0.027412578463554382,0.0017562375869601965,0.09300423413515091
1660273597627005200,1.470005126953125,-0.027412578463554382,0.0017562375869601965,0.09300423413515091
1660273597629004300,1.47200439453125,-0.027412578463554382,0.0017562375869601965,0.09300423413515091
1660273597631004700,1.474004638671875,-0.032299499958753586,0.006032294128090143,0.10277807712554932
1660273597633004800,1.4760048828125,-0.046960264444351196,0.010308351367712021,0.1235474944114685
1660273597635004700,1.478004638671875,-0.059177570044994354,0.018249599263072014,0.14614951610565186
1660273597637005000,1.480005126953125,-0.0671188160777092,0.02557998150587082,0.15775595605373383
1660273597639005000,1.4820048828125,-0.08483391255140305,0.03352123126387596,0.17669276893138885
1660273597641005000,1.484005126953125,-0.09827294945716858,0.04024074971675873,0.19562959671020508
1660273597643006000,1.486005859375,-0.10438159853219986,0.044516805559396744,0.20601430535316467
1660273597645006600,1.488006591796875,-0.12148582190275192,0.053068917244672775,0.22250767052173615
1660273597647006700,1.4900068359375,-0.13675746321678162,0.06528622657060623,0.24083362519741058
1660273597649006600,1.492006591796875,-0.1422552466392517,0.07322747260332108,0.24694228172302246
1660273597651006500,1.49400634765625,-0.1575268805027008,0.08666650950908661,0.26282477378845215
1660273597653006600,1.496006591796875,-0.17035505175590515,0.10132727026939392,0.28237244486808777
1660273597655006500,1.49800634765625,-0.17463110387325287,0.11293371021747589,0.29275718331336975
1660273597657006600,1.500006591796875,-0.18623754382133484,0.13003793358802795,0.30925053358078003
1660273597659006500,1.50200634765625,-0.1929570585489273,0.14958561956882477,0.32879820466041565
1660273597661006600,1.504006591796875,-0.1978439837694168,0.16058120131492615,0.3410155177116394
1660273597663005700,1.506005615234375,-0.20700696110725403,0.26259568333625793,0.4668537676334381
1660273597665004800,1.5080048828125,-0.20578522980213165,0.27847820520401,0.4833471179008484
1660273597667004200,1.510004150390625,-0.20578522980213165,0.27847820520401,0.4833471179008484
1660273597669003300,1.512003173828125,-0.20578522980213165,0.27847820520401,0.4833471179008484
1660273597671002400,1.51400244140625,-0.2027309089899063,0.2900846302509308,0.5010622143745422
1660273597673001200,1.516001220703125,-0.2027309089899063,0.2900846302509308,0.5010622143745422
1660273597675001000,1.5180009765625,-0.20212003588676453,0.30291280150413513,0.5212207436561584
1660273597677000200,1.520000244140625,-0.19417878985404968,0.32795828580856323,0.555429220199585
1660273597679000300,1.522000244140625,-0.19051359593868256,0.34322991967201233,0.57436603307724
1660273597681000200,1.524000244140625,-0.18684840202331543,0.37255144119262695,0.6159048676490784
1660273597683014100,1.52601416015625,-0.18196149170398712,0.39881864190101624,0.6525567770004272
1660273597685000200,1.528000244140625,-0.18012888729572296,0.4147011339664459,0.671493649482727
1660273597686993200,1.5299931640625,-0.17402023077011108,0.4421900808811188,0.707534670829773
1660273597688988400,1.531988525390625,-0.16730071604251862,0.46906813979148865,0.7386888265609741
1660273597690985200,1.533985107421875,-0.16607898473739624,0.48433977365493774,0.755182147026062
1660273597692982800,1.535982666015625,-0.15569427609443665,0.5112178325653076,0.7887797355651855
1660273597694980600,1.537980712890625,-0.15508341789245605,0.5387067794799805,0.813825249671936
1660273597696978700,1.539978759765625,-0.1526399552822113,0.5515349507331848,0.8290968537330627
1660273597698977000,1.54197705078125,-0.15019649267196655,0.5796347856521606,0.8553640842437744
1660273597700975600,1.5439755859375,-0.14347697794437408,0.6071236729621887,0.8797986507415771
1660273597702971600,1.5459716796875,-0.12942707538604736,0.6944774389266968,0.9702067375183105
1660273597704968200,1.54796826171875,-0.128205344080925,0.6993643641471863,0.9799805879592896
1660273597706964700,1.54996484375,-0.128205344080925,0.7011969685554504,0.9885326623916626
1660273597708961800,1.5519619140625,-0.128205344080925,0.7011969685554504,0.9885326623916626
1660273597710961200,1.553961181640625,-0.128205344080925,0.7011969685554504,0.9885326623916626
1660273597712958500,1.55595849609375,-0.128205344080925,0.7011969685554504,0.9885326623916626
1660273597714957600,1.55795751953125,-0.12209668755531311,0.7042512893676758,0.9958630800247192
1660273597716956700,1.559956787109375,-0.12087496370077133,0.7042512893676758,1.0166324377059937
1660273597718956000,1.5619560546875,-0.11965323239564896,0.7005860805511475,1.033125877380371
1660273597720955100,1.563955078125,-0.11904236674308777,0.6963100433349609,1.0416779518127441
1660273597722955300,1.565955322265625,-0.11904236674308777,0.6847035884857178,1.060614824295044
1660273597724955100,1.567955078125,-0.11598803848028183,0.6682102084159851,1.080162525177002
1660273597726955300,1.569955322265625,-0.11598803848028183,0.6590472459793091,1.0942124128341675
1660273597728955100,1.571955078125,-0.11415544152259827,0.6425538659095764,1.118036150932312
1660273597730955300,1.573955322265625,-0.1172097697854042,0.6242279410362244,1.1455250978469849
1660273597732953000,1.575953125,-0.11537717282772064,0.6132323741912842,1.1595749855041504
1660273597734953200,1.577953125,-0.1123228445649147,0.5936846733093262,1.1943942308425903
1660273597736953300,1.579953369140625,-0.10926852375268936,0.5753586888313293,1.2304353713989258
1660273597738953500,1.581953369140625,-0.10865765810012817,0.5680283308029175,1.249372124671936
1660273597740953600,1.58395361328125,-0.10315986722707748,0.553367555141449,1.2915217876434326
1660273597742951200,1.585951171875,-0.09582948684692383,0.5393176674842834,1.356884479522705
1660273597744951000,1.587950927734375,-0.09582948684692383,0.5393176674842834,1.356884479522705
1660273597746951200,1.589951171875,-0.0872773751616478,0.5307655334472656,1.4051427841186523
1660273597748951300,1.591951416015625,-0.07933612167835236,0.5246568918228149,1.4515684843063354
1660273597750951400,1.593951416015625,-0.07444920390844345,0.5191590785980225,1.476613998413086
1660273597752950500,1.595950439453125,-0.06467536091804504,0.5161047577857971,1.5205962657928467
1660273597754950700,1.59795068359375,-0.055512379854917526,0.5032765865325928,1.563356876373291
1660273597756950500,1.599950439453125,-0.0518471859395504,0.49900054931640625,1.5822937488555908
1660273597758950700,1.60195068359375,-0.03901901841163635,0.48861584067344666,1.6195564270019531
1660273597760950500,1.603950439453125,-0.02557998150587082,0.47334420680999756,1.6488779783248901
1660273597762950000,1.605949951171875,-0.020693060010671616,0.4611268937587738,1.6623170375823975
1660273597764950000,1.607949951171875,-0.006643159314990044,0.4354705512523651,1.6806429624557495
1660273597766950000,1.609949951171875,0.009239336475729942,0.40248385071754456,1.6885842084884644
1660273597768950000,1.611949951171875,0.020234910771250725,0.38354700803756714,1.6898059844970703
1660273597770950100,1.6139501953125,0.040393464267253876,0.3407864570617676,1.6824755668640137
1660273597772950000,1.615949951171875,0.06238461285829544,0.2858085632324219,1.666593074798584
1660273597774950100,1.6179501953125,0.07399105280637741,0.26015225052833557,1.6525431871414185
1660273597776950300,1.6199501953125,0.09903652966022491,0.19417878985404968,1.6146695613861084
1660273597778950100,1.6219501953125,0.12408200651407242,0.12392928451299667,1.571908950805664
1660273597780950300,1.6239501953125,0.13385584950447083,0.08544477820396423,1.5419765710830688
1660273597782949400,1.625949462890625,0.17783814668655396,-0.0697149932384491,1.4045319557189941
1660273597784948500,1.627948486328125,0.17783814668655396,-0.0697149932384491,1.4045319557189941
1660273597786948600,1.629948486328125,0.18761198222637177,-0.10392344743013382,1.362382173538208
1660273597788948500,1.631948486328125,0.2010510265827179,-0.17722727358341217,1.2750284671783447
1660273597790948600,1.633948486328125,0.21021400392055511,-0.2413681298494339,1.1779009103775024
1660273597792949000,1.635948974609375,0.21510092914104462,-0.2706896662712097,1.127810001373291
1660273597794948900,1.637948974609375,0.22426390647888184,-0.3262783885002136,1.023352026939392
1660273597796948700,1.63994873046875,0.2267073690891266,-0.36964982748031616,0.90728759765625
1660273597798948900,1.641948974609375,0.22792910039424896,-0.38736492395401,0.8468119502067566
1660273597800948700,1.64394873046875,0.2260964959859848,-0.41485387086868286,0.7338019013404846
1660273597802949600,1.64594970703125,0.22426390647888184,-0.43012550473213196,0.6177374720573425
1660273597804949500,1.647949462890625,0.22243130207061768,-0.4337906837463379,0.5590944290161133
1660273597806949600,1.64994970703125,0.216322660446167,-0.4289037585258484,0.44547349214553833
1660273597808949500,1.651949462890625,0.21265746653079987,-0.41607558727264404,0.3446807265281677
1660273597810950100,1.6539501953125,0.21021400392055511,-0.40508002042770386,0.2952006161212921
1660273597812950500,1.655950439453125,0.2059379518032074,-0.3733150362968445,0.1992947906255722
1660273597814950400,1.657950439453125,0.19860756397247314,-0.33483052253723145,0.11438451707363129
1660273597816950500,1.659950439453125,0.1955532431602478,-0.31589367985725403,0.07590000331401825
1660273597818950700,1.66195068359375,0.1906663179397583,-0.26885706186294556,0.0025961773935705423
1660273597820950500,1.663950439453125,0.18394680321216583,-0.2212095707654953,-0.05971207842230797
1660273597822950100,1.6659501953125,0.1650099754333496,-0.055665094405412674,-0.2246456891298294
1660273597824949200,1.66794921875,0.1650099754333496,-0.055665094405412674,-0.2246456891298294
1660273597826948400,1.6699482421875,0.1650099754333496,-0.055665094405412674,-0.2246456891298294
1660273597828947700,1.67194775390625,0.1650099754333496,-0.055665094405412674,-0.2246456891298294
1660273597830947600,1.673947509765625,0.16256651282310486,-0.040393464267253876,-0.24663683772087097
1660273597832947500,1.675947509765625,0.15218180418014526,-0.010461067780852318,-0.28328874707221985
1660273597834947600,1.677947509765625,0.14729487895965576,0.0029779679607599974,-0.30283644795417786
1660273597836947500,1.679947509765625,0.13874277472496033,0.0188604649156332,-0.3413209617137909
1660273597838947300,1.681947265625,0.12896892428398132,0.03107776865363121,-0.3810271918773651
1660273597840947500,1.683947509765625,0.12469286471605301,0.03352123126387596,-0.4011857509613037
1660273597842948000,1.685947998046875,0.11614075303077698,0.035964690148830414,-0.44455718994140625
1660273597844949000,1.687948974609375,0.1051451787352562,0.03718642145395279,-0.49037206172943115
1660273597846949000,1.68994921875,0.10086912661790848,0.04024074971675873,-0.5135849714279175
1660273597848949200,1.69194921875,0.09109527617692947,0.04207334294915199,-0.5679519772529602
1660273597850949000,1.69394921875,0.08009970188140869,0.04512767121195793,-0.6186537742614746
1660273597852949200,1.69594921875,0.07643451541662216,0.0518471859395504,-0.6467535495758057
1660273597854950100,1.6979501953125,0.06727153807878494,0.06406449526548386,-0.7035640478134155
1660273597856950300,1.6999501953125,0.05688682571053505,0.0817795842885971,-0.7597636580467224
1660273597858950100,1.7019501953125,0.055054228752851486,0.09277515858411789,-0.7896960377693176
1660273597860950000,1.703949951171875,0.04589125141501427,0.12026409804821014,-0.8446739315986633
1660273597862949000,1.70594921875,0.01840231567621231,0.2845868468284607,-0.9961684942245483
1660273597864948500,1.707948486328125,0.01412625890225172,0.31207579374313354,-1.0102183818817139
1660273597866947600,1.709947509765625,0.01412625890225172,0.31207579374313354,-1.0102183818817139
1660273597868946700,1.71194677734375,0.01412625890225172,0.31207579374313354,-1.0102183818817139
1660273597870945000,1.713945068359375,0.01412625890225172,0.31207579374313354,-1.0102183818817139
1660273597872945200,1.715945068359375,0.007406740915030241,0.37682750821113586,-1.0346530675888062
1660273597874945000,1.717945068359375,0.002519819187000394,0.44890961050987244,-1.0468703508377075
1660273597876945200,1.719945068359375,-0.002367102773860097,0.48433977365493774,-1.048092007637024
1660273597878945000,1.721945068359375,-0.008475755341351032,0.5570327639579773,-1.0487029552459717
1660273597880945000,1.72394482421875,-0.015195272862911224,0.6309474110603333,-1.040150761604309
1660273597882945500,1.725945556640625,-0.017638733610510826,0.6700428128242493,-1.031598687171936
1660273597884946400,1.727946533203125,-0.021303925663232803,0.7421249151229858,-1.010829210281372
1660273597886947300,1.729947265625,-0.02252565510571003,0.8111526966094971,-0.9802860021591187
1660273597888948200,1.7319482421875,-0.02252565510571003,0.8423067927360535,-0.9631817936897278
1660273597890948000,1.733947998046875,-0.01702786795794964,0.8991172909736633,-0.9234755635261536
1660273597892948200,1.7359482421875,-0.010308351367712021,0.9498190879821777,-0.880104124546051
1660273597894948000,1.737947998046875,-0.005421428941190243,0.9711993932723999,-0.8568912148475647
1660273597896948200,1.7399482421875,0.011682798154652119,1.0096838474273682,-0.8061894178390503
1660273597898949400,1.741949462890625,0.029397889971733093,1.0420597791671753,-0.7506006956100464
1660273597900949200,1.74394921875,0.040393464267253876,1.0548878908157349,-0.7249443531036377
1660273597902948600,1.745948486328125,0.15890131890773773,1.122083067893982,-0.4769330322742462
1660273597904947700,1.74794775390625,0.15890131890773773,1.122083067893982,-0.4769330322742462
1660273597906946800,1.74994677734375,0.17234036326408386,1.1281917095184326,-0.4518875777721405
1660273597908946000,1.75194580078125,0.17234036326408386,1.1281917095184326,-0.4518875777721405
1660273597910945000,1.753945068359375,0.17234036326408386,1.1361329555511475,-0.42867469787597656
1660273597912944000,1.755944091796875,0.1857793927192688,1.1361329555511475,-0.42867469787597656
1660273597914943200,1.757943115234375,0.2016618847846985,1.14163076877594,-0.4054618179798126
1660273597916943600,1.759943603515625,0.22915083169937134,1.1459068059921265,-0.3602577745914459
1660273597918943500,1.761943603515625,0.24381159245967865,1.14468514919281,-0.3400992155075073
1660273597920943900,1.76394384765625,0.27435484528541565,1.142852544784546,-0.30405816435813904
1660273597922943700,1.76594384765625,0.3073415756225586,1.1324677467346191,-0.2716823220252991
1660273597924945000,1.76794482421875,0.32566753029823303,1.123915672302246,-0.25763240456581116
1660273597926945300,1.7699453125,0.3580434024333954,1.1031463146209717,-0.23808473348617554
1660273597928945700,1.771945556640625,0.39408445358276367,1.077489972114563,-0.21365012228488922
1660273597930946000,1.773946044921875,0.4142429828643799,1.0609965324401855,-0.204487144947052
1660273597932946200,1.7759462890625,0.45028403401374817,1.0280098915100098,-0.18677204847335815
1660273597934946300,1.7779462890625,0.4887685477733612,0.9889144897460938,-0.1696678251028061
1660273597936946400,1.779946533203125,0.5077053904533386,0.9663124680519104,-0.1647808998823166
1660273597938946600,1.781946533203125,0.5449681282043457,0.9204975366592407,-0.15012013912200928
1660273597940946700,1.78394677734375,0.5828418135643005,0.8722392320632935,-0.1385136991739273
1660273597942944000,1.785944091796875,0.6194937229156494,0.8203156590461731,-0.12324206531047821
1660273597944943400,1.787943359375,0.6347653269767761,0.7940484881401062,-0.11774427443742752
1660273597946943200,1.789943115234375,0.6695846915245056,0.7402923107147217,-0.10186178237199783
1660273597948943400,1.791943359375,0.6866888999938965,0.7164685726165771,-0.0933096632361412
1660273597950943200,1.793943115234375,0.7178429961204529,0.6614906787872314,-0.07681630551815033
1660273597952943400,1.795943359375,0.7453319430351257,0.6022367477416992,-0.057879481464624405
1660273597954943200,1.797943115234375,0.7599927186965942,0.5753586888313293,-0.048716504126787186
1660273597956943400,1.799943359375,0.7850381731987,0.5179373621940613,-0.029168816283345222
1660273597958943200,1.801943115234375,0.8082510828971863,0.4568508565425873,-0.005345070734620094
1660273597960943400,1.803943359375,0.8174140453338623,0.4269184470176697,0.00809396430850029
1660273597962943200,1.805943115234375,0.8387943506240845,0.36644279956817627,0.03497203439474106
1660273597964943400,1.807943359375,0.8565094470977783,0.3053562641143799,0.06551529467105865
1660273597966943200,1.809943115234375,0.8656724095344543,0.2742021381855011,0.08261952549219131
1660273597968943400,1.811943359375,0.880944013595581,0.2137264758348465,0.1137736514210701
1660273597970943200,1.813943115234375,0.8931613564491272,0.15019649267196655,0.14798210561275482
1660273597972943400,1.815943359375,0.8998808860778809,0.1227075532078743,0.16325373947620392
1660273597974943200,1.817943115234375,0.9090438485145569,0.061621032655239105,0.19685132801532745
1660273597976943400,1.819943359375,0.9163742065429688,0.0035888333804905415,0.22678372263908386
1660273597978943500,1.821943603515625,0.9188176989555359,-0.026343563571572304,0.24144448339939117
1660273597980943400,1.823943359375,0.9273697733879089,-0.08376489579677582,0.26710084080696106
1660273597982942700,1.825942626953125,0.9371436238288879,-0.20715968310832977,0.3019201457500458
1660273597984941800,1.82794189453125,0.9371436238288879,-0.20715968310832977,0.3019201457500458
1660273597986941700,1.829941650390625,0.9395871162414551,-0.23525947332382202,0.30802878737449646
1660273597988941600,1.831941650390625,0.9456957578659058,-0.29329168796539307,0.30802878737449646
1660273597990941700,1.833941650390625,0.9493609666824341,-0.32383492588996887,0.30802878737449646
1660273597992941600,1.835941650390625,0.9548587203025818,-0.3818671405315399,0.29886582493782043
1660273597994941400,1.83794140625,0.9627999663352966,-0.4429536461830139,0.2854267954826355
1660273597996941600,1.839941650390625,0.9689086079597473,-0.4722751975059509,0.27382034063339233
1660273597998941400,1.84194140625,0.9786824584007263,-0.5284748077392578,0.24633140861988068
1660273598000941600,1.843941650390625,0.9823476672172546,-0.55779629945755,0.2298380434513092
1660273598002942500,1.8459423828125,0.994564950466156,-0.6066655516624451,0.19257527589797974
1660273598004942600,1.847942626953125,1.008004069328308,-0.6512587070465088,0.15225815773010254
1660273598006942700,1.849942626953125,1.0153343677520752,-0.6732498407363892,0.13087788224220276
1660273598008942600,1.851942626953125,1.0263299942016602,-0.7092909216880798,0.08078692853450775
1660273598010942700,1.853942626953125,1.0409907102584839,-0.7404450178146362,0.026419922709465027
1660273598012942300,1.8559423828125,1.0470993518829346,-0.7679339647293091,-0.001679879380390048
1660273598014942200,1.857942138671875,1.0562623739242554,-0.7807621359825134,-0.06154467165470123
1660273598016942300,1.8599423828125,1.0648144483566284,-0.8015315532684326,-0.1189660057425499
1660273598018942200,1.861942138671875,1.070312261581421,-0.8192466497421265,-0.17333301901817322
1660273598020942300,1.8639423828125,1.070312261581421,-0.8265770077705383,-0.20143280923366547
1660273598022941400,1.86594140625,1.059316635131836,-0.8088619709014893,-0.35475999116897583
1660273598024940500,1.8679404296875,1.059316635131836,-0.8088619709014893,-0.35475999116897583
1660273598026940000,1.86993994140625,1.059316635131836,-0.8088619709014893,-0.35475999116897583
1660273598028939000,1.87193896484375,1.059316635131836,-0.7954229116439819,-0.35475999116897583
1660273598030939100,1.873939208984375,1.0532079935073853,-0.7954229116439819,-0.36453384160995483
1660273598032939000,1.87593896484375,1.0367146730422974,-0.7661013603210449,-0.3822489380836487
1660273598034939100,1.877939208984375,1.0202213525772095,-0.7276168465614319,-0.3908010423183441
1660273598036939000,1.87993896484375,1.0116691589355469,-0.7074583172798157,-0.3920227587223053
1660273598038939000,1.88193896484375,0.9884563088417053,-0.6561456322669983,-0.38347065448760986
1660273598040939000,1.88393896484375,0.9634108543395996,-0.6036112308502197,-0.3663664162158966
1660273598042939600,1.885939697265625,0.9511935710906982,-0.5730679631233215,-0.35475999116897583
1660273598044940800,1.88794091796875,0.9230937361717224,-0.5113705396652222,-0.3248275816440582
1660273598046940700,1.889940673828125,0.8901070356369019,-0.4441753923892975,-0.28206703066825867
1660273598048940800,1.89194091796875,0.8766679763793945,-0.4142429828643799,-0.2594650089740753
1660273598050941000,1.89394091796875,0.8479573130607605,-0.3470478057861328,-0.20876319706439972
1660273598052940800,1.89594091796875,0.8161923289299011,-0.28718301653862,-0.14645494520664215
1660273598054941000,1.89794091796875,0.8009206652641296,-0.2566397488117218,-0.11713340878486633
1660273598056940800,1.89994091796875,0.7715991735458374,-0.19982929527759552,-0.048105638474226
1660273598058941000,1.90194091796875,0.7428885102272034,-0.14912748336791992,0.027641652151942253
1660273598060941000,1.903941162109375,0.7288386225700378,-0.1253037303686142,0.06551529467105865
1660273598062940200,1.905940185546875,0.6078872680664062,-0.00557414535433054,0.3917173445224762
1660273598064939300,1.907939208984375,0.6078872680664062,-0.00557414535433054,0.3917173445224762
1660273598066938400,1.9099384765625,0.6078872680664062,-0.00557414535433054,0.3917173445224762
1660273598068937500,1.9119375,0.5865070223808289,-0.0006872233934700489,0.432645320892334
1660273598070936800,1.913936767578125,0.5865070223808289,-0.0006872233934700489,0.432645320892334
1660273598072937200,1.915937255859375,0.5724570751190186,0.002367102773860097,0.47479501366615295
1660273598074937000,1.91793701171875,0.538859486579895,0.0005345070967450738,0.555429220199585
1660273598076937200,1.919937255859375,0.5046510696411133,-0.004963280167430639,0.6336199641227722
1660273598078937000,1.92193701171875,0.48571422696113586,-0.011071932502090931,0.6745479702949524
1660273598080937000,1.92393701171875,0.4539492428302765,-0.026343563571572304,0.7515169382095337
1660273598082937900,1.925937744140625,0.4240168333053589,-0.043447788804769516,0.8205447196960449
1660273598084938800,1.927938720703125,0.40569087862968445,-0.052610769867897034,0.8553640842437744
1660273598086939600,1.929939697265625,0.3727041482925415,-0.07582364976406097,0.9207266569137573
1660273598088940300,1.931940185546875,0.3421608805656433,-0.10209085047245026,0.9812023043632507
1660273598090940400,1.9339404296875,0.3281109929084778,-0.11552988737821579,1.0062477588653564
1660273598092940300,1.935940185546875,0.29451340436935425,-0.1460731476545334,1.052673578262329
1660273598094940200,1.937940185546875,0.2651918828487396,-0.1808924674987793,1.0905472040176392
1660273598096940300,1.939940185546875,0.25297456979751587,-0.19738583266735077,1.1039862632751465
1660273598098940400,1.9419404296875,0.22487476468086243,-0.23831380903720856,1.1339186429977417
1660273598100940300,1.943940185546875,0.19860756397247314,-0.2761874496936798,1.1534663438796997
1660273598102939600,1.945939697265625,0.10270171612501144,-0.4374558627605438,1.17545747756958
1660273598104938500,1.9479384765625,0.09598220139741898,-0.45517095923423767,1.17240309715271
1660273598106937600,1.9499375,0.08804095536470413,-0.4722751975059509,1.1669052839279175
1660273598108937000,1.95193701171875,0.08804095536470413,-0.4722751975059509,1.1669052839279175
1660273598110936600,1.9539365234375,0.08804095536470413,-0.4722751975059509,1.1669052839279175
1660273598112936400,1.9559365234375,0.08804095536470413,-0.4722751975059509,1.1669052839279175
1660273598114936300,1.957936279296875,0.07643451541662216,-0.48693597316741943,1.1614075899124146
1660273598116936400,1.9599365234375,0.06299547851085663,-0.5083162188529968,1.1479685306549072
1660273598118936300,1.961936279296875,0.05016730725765228,-0.520533561706543,1.1326968669891357
1660273598120936200,1.963936279296875,0.04528038576245308,-0.5241987109184265,1.123533844947815
1660273598122936300,1.965936279296875,0.03550654277205467,-0.5241987109184265,1.1021536588668823
1660273598124936200,1.967936279296875,0.028176158666610718,-0.5113705396652222,1.0813841819763184
1660273598126936300,1.969936279296875,0.025732697919011116,-0.5040401816368103,1.0716103315353394
1660273598128936400,1.9719365234375,0.0214566420763731,-0.48143815994262695,1.0520626306533813
1660273598130936800,1.973936767578125,0.02451096847653389,-0.4527274966239929,1.0288498401641846
1660273598132937000,1.97593701171875,0.023900102823972702,-0.4344015419483185,1.0196868181228638
1660273598134937000,1.97793701171875,0.02756529487669468,-0.40019309520721436,1.0031934976577759
1660273598136937200,1.979937255859375,0.0342848114669323,-0.36048686504364014,0.984867513179779
1660273598138939000,1.98193896484375,0.0391717329621315,-0.3427717685699463,0.9726501703262329
1660273598140939000,1.98393896484375,0.05077817291021347,-0.3018437922000885,0.9506590366363525
1660273598142936300,1.985936279296875,0.06727153807878494,-0.23709207773208618,0.9127854108810425
1660273598144936400,1.9879365234375,0.06727153807878494,-0.23709207773208618,0.9127854108810425
1660273598146936300,1.989936279296875,0.07765624672174454,-0.19310978055000305,0.8840747475624084
1660273598148936400,1.9919365234375,0.08620835840702057,-0.1460731476545334,0.8480336666107178
1660273598150936300,1.993936279296875,0.08926268666982651,-0.12469286471605301,0.8272642493247986
1660273598152937500,1.9959375,0.09903652966022491,-0.08254316449165344,0.7814493775367737
1660273598154937300,1.997937255859375,0.10575604438781738,-0.03672827407717705,0.7252497673034668
1660273598156937500,1.9999375,0.10758864134550095,-0.016569720581173897,0.6947064995765686
1660273598158937600,2.0019375,0.11125383526086807,0.024358252063393593,0.6256787180900574
1660273598160937500,2.0039375,0.11308643221855164,0.06223189830780029,0.5462662577629089
1660273598162937300,2.005937255859375,0.11430815607309341,0.07628180086612701,0.5059491395950317
1660273598164938000,2.00793798828125,0.11186470091342926,0.1025490015745163,0.4173736870288849
1660273598166938400,2.0099384765625,0.10453431308269501,0.11843150109052658,0.31841349601745605
1660273598168938500,2.0119384765625,0.09659306704998016,0.12148582190275192,0.2664899528026581
1660273598170938400,2.0139384765625,0.07826711237430573,0.11904236674308777,0.15836681425571442
1660273598172938500,2.0159384765625,0.052610769867897034,0.10193813592195511,0.04535674303770065
1660273598174938400,2.0179384765625,0.037339139729738235,0.09094256162643433,-0.014508049935102463
1660273598176938500,2.0199384765625,-0.0017562375869601965,0.05245805159211159,-0.13729196786880493
1660273598178938600,2.021938720703125,-0.04818199574947357,0.007864889688789845,-0.2606867551803589
1660273598180938500,2.0239384765625,-0.07506006956100464,-0.020845776423811913,-0.3248275816440582
1660273598182937600,2.0259375,-0.20761781930923462,-0.15279266238212585,-0.5881105065345764
1660273598184937000,2.02793701171875,-0.20761781930923462,-0.15279266238212585,-0.5881105065345764
1660273598186936800,2.029936767578125,-0.2442697435617447,-0.18761198222637177,-0.660192608833313
1660273598188937000,2.03193701171875,-0.3261256814002991,-0.25969409942626953,-0.793361246585846
1660273598190936800,2.033936767578125,-0.41103595495224,-0.32566753029823303,-0.9210320711135864
1660273598192937000,2.03593701171875,-0.4562399685382843,-0.35498905181884766,-0.9851729273796082
1660273598194937300,2.037937255859375,-0.5484806299209595,-0.41057780385017395,-1.106735110282898
1660273598196937200,2.039937255859375,-0.6376669406890869,-0.4484514594078064,-1.2246321439743042
1660273598198936800,2.041936767578125,-0.6853144764900208,-0.4643339514732361,-1.280220866203308
1660273598200936700,2.043936767578125,-0.7769442200660706,-0.48571422696113586,-1.3865114450454712
1660273598202937600,2.0459375,-0.8642979860305786,-0.4942663311958313,-1.4805846214294434
1660273598204937700,2.047937744140625,-0.9076694250106812,-0.4979315400123596,-1.524566888809204
1660273598206937600,2.0499375,-0.989525318145752,-0.4942663311958313,-1.6082555055618286
1660273598208937700,2.051937744140625,-1.067716121673584,-0.4887685477733612,-1.684613585472107
1660273598210937900,2.053937744140625,-1.1000919342041016,-0.48693597316741943,-1.7182111740112305
1660273598212937200,2.055937255859375,-1.1672871112823486,-0.4838816225528717,-1.7805194854736328
1660273598214937300,2.057937255859375,-1.225319266319275,-0.48021644353866577,-1.8379408121109009
1660273598216937200,2.059937255859375,-1.2473105192184448,-0.48021644353866577,-1.8635971546173096
1660273598218937300,2.061937255859375,-1.2894601821899414,-0.48082730174064636,-1.9142990112304688
1660273598220937500,2.0639375,-1.3267229795455933,-0.4826599061489105,-1.9619464874267578
1660273598222936600,2.0659365234375,-1.3926963806152344,-0.4789946973323822,-2.107943296432495
1660273598224935400,2.067935302734375,-1.3926963806152344,-0.4789946973323822,-2.107943296432495
1660273598226934300,2.069934326171875,-1.3926963806152344,-0.4789946973323822,-2.107943296432495
1660273598228933400,2.071933349609375,-1.3926963806152344,-0.4789946973323822,-2.107943296432495
1660273598230933200,2.073933349609375,-1.391474723815918,-0.4741078019142151,-2.124436616897583
1660273598232933400,2.075933349609375,-1.3884203433990479,-0.467999130487442,-2.1598668098449707
1660273598234933200,2.077933349609375,-1.380479097366333,-0.46127963066101074,-2.1757493019104004
1660273598236933000,2.07993310546875,-1.3639857769012451,-0.44600799679756165,-2.200183868408203
1660273598238933200,2.081933349609375,-1.3364968299865723,-0.42523857951164246,-2.216066360473633
1660273598240933000,2.08393310546875,-1.3175599575042725,-0.41546472907066345,-2.219731569290161
1660273598242934000,2.08593408203125,-1.2729668617248535,-0.3830888569355011,-2.2185099124908447
1660273598244935000,2.087934814453125,-1.2143237590789795,-0.3427717685699463,-2.199573040008545
1660273598246934800,2.089934814453125,-1.181947946548462,-0.32078060507774353,-2.1879665851593018
1660273598248934100,2.09193408203125,-1.1049789190292358,-0.2713005244731903,-2.149482011795044
1660273598250934300,2.093934326171875,-1.0261772871017456,-0.21449005603790283,-2.0981693267822266
1660273598252934100,2.09593408203125,-0.9803623557090759,-0.18455766141414642,-2.0694587230682373
1660273598254933800,2.097933837890625,-0.8905651569366455,-0.1253037303686142,-1.9998201131820679
1660273598256934000,2.099933837890625,-0.7977136373519897,-0.064217209815979,-1.9167424440383911
1660273598258934000,2.10193408203125,-0.753120481967926,-0.034895677119493484,-1.875814437866211
1660273598260934000,2.103933837890625,-0.6694319248199463,0.021303925663232803,-1.7799086570739746
1660273598262933000,2.10593310546875,-0.43791401386260986,0.17890715599060059,-1.4078916311264038
1660273598264932400,2.107932373046875,-0.41225767135620117,0.19723311066627502,-1.3504703044891357
1660273598266931500,2.109931396484375,-0.41225767135620117,0.19723311066627502,-1.3504703044891357
1660273598268930600,2.1119306640625,-0.41225767135620117,0.19723311066627502,-1.3504703044891357
1660273598270930400,2.113930419921875,-0.41225767135620117,0.19723311066627502,-1.3504703044891357
1660273598272930300,2.115930419921875,-0.3694971203804016,0.22288945317268372,-1.241125464439392
1660273598274930400,2.117930419921875,-0.3352886736392975,0.24182628095149994,-1.1317806243896484
1660273598276930300,2.119930419921875,-0.32246050238609314,0.24610233306884766,-1.079246163368225
1660273598278930200,2.12193017578125,-0.2949715554714203,0.24549147486686707,-0.9717338681221008
1660273598280929300,2.12392919921875,-0.27298039197921753,0.23755022883415222,-0.8758280277252197
1660273598282930000,2.125929931640625,-0.26565003395080566,0.22960896790027618,-0.8287914395332336
1660273598284930800,2.127930908203125,-0.25526532530784607,0.21616993844509125,-0.7402159571647644
1660273598286932000,2.129931884765625,-0.24793493747711182,0.19967657327651978,-0.65958172082901
1660273598288933000,2.13193310546875,-0.24488060176372528,0.19417878985404968,-0.6229298114776611
1660273598290933000,2.13393310546875,-0.2387719452381134,0.1825723499059677,-0.5520694851875305
1660273598292933000,2.13593310546875,-0.2436588704586029,0.17585283517837524,-0.4928155243396759
1660273598294933000,2.13793310546875,-0.24121540784835815,0.1727984994649887,-0.4616613984107971
1660273598296933000,2.13993310546875,-0.24610233306884766,0.17463110387325287,-0.40912699699401855
1660273598298933200,2.141933349609375,-0.2534327208995819,0.17829629778862,-0.36453384160995483
1660273598300933000,2.14393310546875,-0.2577087879180908,0.18073976039886475,-0.3425426781177521
1660273598302932200,2.14593212890625,-0.32184961438179016,0.17646369338035583,-0.21365012228488922
1660273598304931600,2.147931640625,-0.32184961438179016,0.17646369338035583,-0.21365012228488922
1660273598306930700,2.1499306640625,-0.330401748418808,0.17646369338035583,-0.20326541364192963
1660273598308930300,2.151930419921875,-0.330401748418808,0.17646369338035583,-0.20326541364192963
1660273598310929400,2.153929443359375,-0.3450624942779541,0.17035505175590515,-0.194713294506073
1660273598312928500,2.155928466796875,-0.3450624942779541,0.17035505175590515,-0.194713294506073
1660273598314928400,2.157928466796875,-0.35300374031066895,0.16607898473739624,-0.1843285858631134
1660273598316928500,2.159928466796875,-0.3756057620048523,0.15447254478931427,-0.16783522069454193
1660273598318928400,2.161928466796875,-0.38782307505607605,0.1471421718597412,-0.1598939746618271
1660273598320928300,2.16392822265625,-0.41103595495224,0.13492485880851746,-0.14767667651176453
1660273598322928400,2.165928466796875,-0.4360814392566681,0.11904236674308777,-0.13057245314121246
1660273598324928300,2.16792822265625,-0.449520468711853,0.11293371021747589,-0.12263119965791702
1660273598326928400,2.169928466796875,-0.4709007441997528,0.09582948684692383,-0.1036943718791008
1660273598328928300,2.17192822265625,-0.4959462285041809,0.07933612167835236,-0.08536841720342636
1660273598330928600,2.1739287109375,-0.5063309073448181,0.07078400999307632,-0.07376197725534439
1660273598332928800,2.1759287109375,-0.5289329290390015,0.05429064854979515,-0.051770828664302826
1660273598334929000,2.177928955078125,-0.5497023463249207,0.03352123126387596,-0.027947084978222847
1660273598336929000,2.179928955078125,-0.5558109879493713,0.023136520758271217,-0.013897184282541275
1660273598338929200,2.18192919921875,-0.5704717636108398,0.0029779679607599974,0.01114829070866108
1660273598340929300,2.18392919921875,-0.5839108228683472,-0.017791450023651123,0.03436116874217987
1660273598342926800,2.1859267578125,-0.592462956905365,-0.037339139729738235,0.058184914290905
1660273598344927000,2.187927001953125,-0.591852068901062,-0.046502117067575455,0.07101308554410934
1660273598346926800,2.1899267578125,-0.5979607105255127,-0.06666067242622375,0.09483683109283447
1660273598348926000,2.191926025390625,-0.5973498225212097,-0.07887797802686691,0.10766500234603882
1660273598350926000,2.193926025390625,-0.5967389941215515,-0.09231700748205185,0.1290452778339386
1660273598352926000,2.195926025390625,-0.5930737853050232,-0.10392344743013382,0.1485929638147354
1660273598354925300,2.19792529296875,-0.5894085764884949,-0.11308643221855164,0.1589776873588562
1660273598356925200,2.19992529296875,-0.5845217108726501,-0.12347114086151123,0.17669276893138885
1660273598358925300,2.20192529296875,-0.5747478604316711,-0.1308015137910843,0.19135354459285736
1660273598360925200,2.20392529296875,-0.5704717636108398,-0.13324497640132904,0.1999056488275528
1660273598362925300,2.20592529296875,-0.5582544803619385,-0.1350775808095932,0.2102903574705124
1660273598364925400,2.207925537109375,-0.5460371971130371,-0.13874277472496033,0.21823160350322723
1660273598366926000,2.209926025390625,-0.5405393838882446,-0.13813190162181854,0.22189679741859436
1660273598368926000,2.211926025390625,-0.5252677798271179,-0.13813190162181854,0.22128593921661377
1660273598370926000,2.213926025390625,-0.5148830413818359,-0.13874277472496033,0.21639901399612427
1660273598372926200,2.21592626953125,-0.5057200789451599,-0.13385584950447083,0.2096794992685318
1660273598374926000,2.217926025390625,-0.49472448229789734,-0.13263411819934845,0.1944078654050827
1660273598376926200,2.21992626953125,-0.48250719904899597,-0.12713633477687836,0.17058411240577698
1660273598378926000,2.221926025390625,-0.4800637364387512,-0.12347114086151123,0.15653422474861145
1660273598380926200,2.22392626953125,-0.4696790277957916,-0.11736248433589935,0.1186605766415596
1660273598382925300,2.22592529296875,-0.45318564772605896,-0.09720393270254135,0.01970040425658226
1660273598384924400,2.22792431640625,-0.45318564772605896,-0.09720393270254135,0.01970040425658226
1660273598386924300,2.22992431640625,-0.45257478952407837,-0.09109527617692947,-0.011453723534941673
1660273598388924700,2.231924560546875,-0.4458552598953247,-0.07582364976406097,-0.07376197725534439
1660273598390924800,2.2339248046875,-0.44280093908309937,-0.06604980677366257,-0.10919216275215149
1660273598392925200,2.23592529296875,-0.43913576006889343,-0.04283692687749863,-0.17699819803237915
1660273598394925000,2.237925048828125,-0.4318053722381592,-0.016569720581173897,-0.24908030033111572
1660273598396925000,2.239925048828125,-0.42936190962791443,-0.0019089538836851716,-0.2838996350765228
1660273598398925000,2.241925048828125,-0.420809805393219,0.023747386410832405,-0.355981707572937
1660273598400925000,2.243925048828125,-0.4165337383747101,0.04818199574947357,-0.4280638098716736
1660273598402925800,2.24592578125,-0.41286855936050415,0.061621032655239105,-0.4628831446170807
1660273598404925700,2.24792578125,-0.40859249234199524,0.08300131559371948,-0.5313000679016113
1660273598406925800,2.24992578125,-0.4055381715297699,0.10499246418476105,-0.5966626405715942
1660273598408926200,2.25192626953125,-0.40370556712150574,0.11415544152259827,-0.6290385127067566
1660273598410926300,2.25392626953125,-0.4018729627132416,0.13431400060653687,-0.6864598393440247
1660273598412926200,2.25592626953125,-0.4018729627132416,0.15508341789245605,-0.7316638231277466
1660273598414926600,2.257926513671875,-0.4018729627132416,0.16974417865276337,-0.7530441284179688
1660273598416926700,2.2599267578125,-0.40309470891952515,0.1929570585489273,-0.7866417169570923
1660273598418925800,2.26192578125,-0.4055381715297699,0.20517437160015106,-0.8013024926185608
1660273598420925700,2.26392578125,-0.4061490297317505,0.23205243051052094,-0.8232936263084412
1660273598422925000,2.265925048828125,-0.42875105142593384,0.29680415987968445,-0.8239045143127441
1660273598424924200,2.267924072265625,-0.4354705512523651,0.30169108510017395,-0.811687171459198
1660273598426922800,2.2699228515625,-0.4354705512523651,0.30169108510017395,-0.811687171459198
1660273598428921900,2.271921875,-0.4354705512523651,0.30169108510017395,-0.811687171459198
1660273598430921700,2.273921630859375,-0.439746618270874,0.3035236597061157,-0.801913321018219
1660273598432921900,2.275921875,-0.44280093908309937,0.3084105849266052,-0.7878634333610535
1660273598434922000,2.277921875,-0.4501313269138336,0.3132975101470947,-0.7542658448219299
1660273598436922000,2.279922119140625,-0.4562399685382843,0.3132975101470947,-0.7133378982543945
1660273598438922000,2.281921875,-0.45929431915283203,0.3132975101470947,-0.688903272151947
1660273598440922000,2.283922119140625,-0.4647921025753021,0.3157409727573395,-0.6351471543312073
1660273598442923000,2.285923095703125,-0.47273334860801697,0.3157409727573395,-0.5740606188774109
1660273598444924000,2.287923828125,-0.4715116024017334,0.31635183095932007,-0.5422956347465515
1660273598446924000,2.289924072265625,-0.47273334860801697,0.3151301145553589,-0.46899178624153137
1660273598448923600,2.291923583984375,-0.4763985276222229,0.3145192563533783,-0.395077109336853
1660273598450923800,2.293923828125,-0.4763985276222229,0.3102431893348694,-0.35414913296699524
1660273598452923400,2.29592333984375,-0.47456592321395874,0.3084105849266052,-0.2710714638233185
1660273598454923300,2.29792333984375,-0.46906813979148865,0.30779972672462463,-0.18066339194774628
1660273598456923400,2.29992333984375,-0.4647921025753021,0.31146490573883057,-0.1385136991739273
1660273598458923300,2.30192333984375,-0.45807257294654846,0.31146490573883057,-0.04505131021142006
1660273598460923400,2.30392333984375,-0.4513530433177948,0.31757357716560364,0.050243668258190155
1660273598462922500,2.305922607421875,-0.4098142087459564,0.3560580909252167,0.4222606122493744
1660273598464921600,2.307921630859375,-0.40370556712150574,0.3554472029209137,0.4668537676334381
1660273598466920700,2.309920654296875,-0.39881864190101624,0.3536146283149719,0.5090034604072571
1660273598468919800,2.311919921875,-0.39881864190101624,0.3536146283149719,0.5090034604072571
1660273598470919000,2.3139189453125,-0.39881864190101624,0.3536146283149719,0.5090034604072571
1660273598472918300,2.315918212890625,-0.39881864190101624,0.3536146283149719,0.5090034604072571
1660273598474918100,2.317918212890625,-0.39271000027656555,0.3548363447189331,0.5468770861625671
1660273598476918300,2.319918212890625,-0.3798818290233612,0.3438407778739929,0.6250678896903992
1660273598478919000,2.3219189453125,-0.3707188367843628,0.3291800022125244,0.6940956115722656
1660273598480919000,2.3239189453125,-0.36644279956817627,0.31818443536758423,0.7307475209236145
1660273598482920000,2.325919921875,-0.35666894912719727,0.2937498390674591,0.7900014519691467
1660273598484920000,2.327920166015625,-0.3456733822822571,0.26626089215278625,0.8455902338027954
1660273598486924500,2.329924560546875,-0.34200817346572876,0.2528218626976013,0.868803083896637
1660273598488924700,2.331924560546875,-0.33223432302474976,0.2180025279521942,0.9097310900688171
1660273598490925000,2.333925048828125,-0.329790860414505,0.17646369338035583,0.9512699246406555
1660273598492925200,2.33592529296875,-0.3261256814002991,0.15508341789245605,0.9640980958938599
1660273598494925300,2.33792529296875,-0.320627897977829,0.1074359267950058,0.9873109459877014
1660273598496925400,2.339925537109375,-0.31696268916130066,0.06039930135011673,1.0056369304656982
1660273598498925600,2.341925537109375,-0.31635183095932007,0.0365755558013916,1.0099129676818848
1660273598500925700,2.34392578125,-0.31757357716560364,-0.01412625890225172,1.0196868181228638
1660273598502923300,2.34592333984375,-0.34750595688819885,-0.19494237005710602,1.0251846313476562
1660273598504920800,2.3479208984375,-0.3511711657047272,-0.21204659342765808,1.0251846313476562
1660273598506918700,2.349918701171875,-0.3554472029209137,-0.22915083169937134,1.0276280641555786
1660273598508916500,2.35191650390625,-0.3554472029209137,-0.22915083169937134,1.0276280641555786
1660273598510915300,2.353915283203125,-0.3554472029209137,-0.22915083169937134,1.0276280641555786
1660273598512913700,2.35591357421875,-0.3554472029209137,-0.22915083169937134,1.0276280641555786
1660273598514913800,2.357913818359375,-0.3597232699394226,-0.2419789880514145,1.0282388925552368
1660273598516912000,2.359912109375,-0.368886262178421,-0.26458099484443665,1.030071496963501
1660273598518912300,2.361912353515625,-0.37804922461509705,-0.2804635167121887,1.0343475341796875
1660273598520912400,2.363912353515625,-0.3811035454273224,-0.2853504419326782,1.0404561758041382
1660273598522912300,2.365912353515625,-0.38354700803756714,-0.2914590835571289,1.0471757650375366
1660273598524912400,2.367912353515625,-0.38843393325805664,-0.29451340436935425,1.0551170110702515
1660273598526912300,2.369912353515625,-0.3896556794643402,-0.28901562094688416,1.0600038766860962
1660273598528912400,2.371912353515625,-0.38904479146003723,-0.2810743749141693,1.0697777271270752
1660273598530912300,2.373912353515625,-0.3853796124458313,-0.25969409942626953,1.0862711668014526
1660273598532912400,2.375912353515625,-0.3804926872253418,-0.24747678637504578,1.0954340696334839
1660273598534912000,2.377912109375,-0.36766451597213745,-0.21876612305641174,1.1131491661071777
1660273598536912000,2.379911865234375,-0.35239288210868835,-0.18150334060192108,1.133307695388794
1660273598538911700,2.381911865234375,-0.34261903166770935,-0.15951219201087952,1.1479685306549072
1660273598540911600,2.38391162109375,-0.3151301145553589,-0.11858421564102173,1.1650726795196533
1660273598542909000,2.385908935546875,-0.26565003395080566,-0.06360634416341782,1.1901181936264038
1660273598544908800,2.38790869140625,-0.26565003395080566,-0.06360634416341782,1.1901181936264038
1660273598546909000,2.389908935546875,-0.2241111844778061,-0.040393464267253876,1.1943942308425903
1660273598548908300,2.391908203125,-0.17402023077011108,-0.0342848114669323,1.1864529848098755
1660273598550908200,2.393908203125,-0.14592044055461884,-0.034895677119493484,1.1772900819778442
1660273598552908300,2.395908203125,-0.08849909901618958,-0.0544433668255806,1.1498011350631714
1660273598554907400,2.397907470703125,-0.026190847158432007,-0.08804095536470413,1.1033753156661987
1660273598556907300,2.3999072265625,0.006795875728130341,-0.11125383526086807,1.0746647119522095
1660273598558907400,2.401907470703125,0.07154759019613266,-0.16439910233020782,1.0068585872650146
1660273598560907300,2.4039072265625,0.13446670770645142,-0.22853995859622955,0.9231700897216797
1660273598562907100,2.4059072265625,0.16195565462112427,-0.2615266740322113,0.877966046333313
1660273598564907300,2.4079072265625,0.21693351864814758,-0.3329979181289673,0.7735081315040588
1660273598566907000,2.409906982421875,0.2676353454589844,-0.4026365578174591,0.6629415154457092
1660273598568906800,2.41190673828125,0.29023733735084534,-0.4331798255443573,0.60429847240448
1660273598570907000,2.413906982421875,0.3287218511104584,-0.4930446147918701,0.48640143871307373
1660273598572907000,2.415906982421875,0.3610977232456207,-0.5327508449554443,0.3660610020160675
1660273598574907100,2.4179072265625,0.3733150362968445,-0.5461899042129517,0.3049744665622711
1660273598576907000,2.419906982421875,0.3922518491744995,-0.5663484334945679,0.19013181328773499
1660273598578907100,2.4219072265625,0.4087451994419098,-0.568181037902832,0.07590000331401825
1660273598580907000,2.423906982421875,0.4124104082584381,-0.5651267170906067,0.023365596309304237
1660273598582906000,2.425906005859375,0.4124104082584381,-0.5254204869270325,-0.18799377977848053
1660273598584905200,2.4279052734375,0.4124104082584381,-0.5254204869270325,-0.18799377977848053
1660273598586905300,2.4299052734375,0.40630173683166504,-0.5070945024490356,-0.23686300218105316
1660273598588905000,2.431905029296875,0.39408445358276367,-0.46555566787719727,-0.3254384696483612
1660273598590905000,2.433905029296875,0.37514761090278625,-0.42035165429115295,-0.4054618179798126
1660273598592905000,2.435905029296875,0.36415204405784607,-0.39591702818870544,-0.44516804814338684
1660273598594905000,2.437905029296875,0.3378848433494568,-0.3372739851474762,-0.508698046207428
1660273598596905000,2.439905029296875,0.3122285008430481,-0.2810743749141693,-0.5630650520324707
1660273598598905000,2.441905029296875,0.2963460087776184,-0.2505311071872711,-0.5832235813140869
1660273598600905200,2.4439052734375,0.26885706186294556,-0.18944458663463593,-0.6180428862571716
1660273598602906000,2.445906005859375,0.2407572716474533,-0.13263411819934845,-0.6394231915473938
1660273598604906000,2.447906005859375,0.22487476468086243,-0.10392344743013382,-0.6455318331718445
1660273598606906000,2.449906005859375,0.19310978055000305,-0.04711298272013664,-0.6522513628005981
1660273598608906200,2.45190625,0.16134478151798248,0.002367102773860097,-0.6485861539840698
1660273598610906400,2.45390625,0.14424055814743042,0.02802344225347042,-0.640644907951355
1660273598612906800,2.45590673828125,0.11430815607309341,0.07322747260332108,-0.6272059082984924
1660273598614907100,2.4579072265625,0.08254316449165344,0.10865765810012817,-0.6052147150039673
1660273598616907300,2.4599072265625,0.06727153807878494,0.12087496370077133,-0.5911648273468018
1660273598618907000,2.461906982421875,0.04222606122493744,0.13981178402900696,-0.5685628056526184
1660273598620907000,2.463906982421875,0.017791450023651123,0.14347697794437408,-0.5447390675544739
1660273598622906000,2.465906005859375,-0.013362676836550236,0.08055785298347473,-0.5007568001747131
1660273598624905200,2.4679052734375,-0.013362676836550236,0.08055785298347473,-0.5007568001747131
1660273598626904600,2.469904541015625,-0.013362676836550236,0.08055785298347473,-0.5007568001747131
1660273598628903700,2.471903564453125,-0.013362676836550236,0.08055785298347473,-0.5007568001747131
1660273598630903800,2.47390380859375,-0.012140946462750435,0.06284276396036148,-0.5001459121704102
1660273598632903200,2.475903076171875,-0.0035888333804905415,0.02191479131579399,-0.508698046207428
1660273598634903000,2.477903076171875,0.00007635815563844517,-0.00007635815563844517,-0.5154175758361816
1660273598636903200,2.479903076171875,0.01595885492861271,-0.04466952010989189,-0.5380195379257202
1660273598638903000,2.481903076171875,0.031230485066771507,-0.08926268666982651,-0.5655084848403931
1660273598640903200,2.483903076171875,0.03978259861469269,-0.10697777569293976,-0.5844452977180481
1660273598642904000,2.485904052734375,0.05688682571053505,-0.13629931211471558,-0.6186537742614746
1660273598644904400,2.487904541015625,0.07521278411149979,-0.16195565462112427,-0.6614143252372742
1660273598646904600,2.489904541015625,0.0849866271018982,-0.16867516934871674,-0.6827946305274963
1660273598648904700,2.49190478515625,0.10025826096534729,-0.17417295277118683,-0.7218900322914124
1660273598650904800,2.49390478515625,0.11614075303077698,-0.1705077588558197,-0.7646505832672119
1660273598652905000,2.495905029296875,0.12347114086151123,-0.15951219201087952,-0.7835873961448669
1660273598654904800,2.49790478515625,0.13263411819934845,-0.13629931211471558,-0.821461021900177
1660273598656905000,2.499905029296875,0.1405753642320633,-0.09414960443973541,-0.8538368940353394
1660273598658904800,2.50190478515625,0.14668402075767517,-0.07093672454357147,-0.8691084980964661
1660273598660904700,2.50390478515625,0.1552361249923706,-0.00985020212829113,-0.8965974450111389
1660273598662903800,2.50590380859375,0.1906663179397583,0.34139731526374817,-0.954018771648407
1660273598664903000,2.50790283203125,0.19494237005710602,0.3908773958683014,-0.9595165848731995
1660273598666902000,2.509902099609375,0.2010510265827179,0.43791401386260986,-0.9613491892814636
1660273598668901000,2.511901123046875,0.2010510265827179,0.43791401386260986,-0.9613491892814636
1660273598670900200,2.513900146484375,0.2010510265827179,0.43791401386260986,-0.9613491892814636
1660273598672898800,2.51589892578125,0.2010510265827179,0.43791401386260986,-0.9613491892814636
1660273598674899000,2.51789892578125,0.21754439175128937,0.5387067794799805,-0.9674578309059143
1660273598676900000,2.519900146484375,0.22792910039424896,0.5863542556762695,-0.9692904353141785
1660273598678900200,2.521900146484375,0.24869851768016815,0.6816492676734924,-0.9729556441307068
