time,seconds_elapsed,z,y,x
1660273498806403300,0.0554033203125,0.144851416349411,-1.2346349954605103,0.755793035030365
1660273498808403200,0.0574033203125,0.144851416349411,-1.2346349954605103,0.755793035030365
1660273498810403300,0.0594033203125,0.144851416349411,-1.2346349954605103,0.755793035030365
1660273498812403200,0.0614033203125,0.144851416349411,-1.2346349954605103,0.755793035030365
1660273498814402800,0.06340283203125,0.010461067780852318,-0.7276168465614319,1.651321530342102
1660273498816402700,0.065402587890625,0.0012980886967852712,-0.729449450969696,1.7075210809707642
1660273498818397200,0.067397216796875,-0.02802344225347042,-0.7581601142883301,1.848020076751709
1660273498820392700,0.069392822265625,-0.02802344225347042,-0.7581601142883301,1.848020076751709
1660273498822389000,0.071388916015625,-0.02802344225347042,-0.7581601142883301,1.848020076751709
1660273498824385500,0.073385498046875,-0.02802344225347042,-0.7581601142883301,1.848020076751709
1660273498826385400,0.075385498046875,-0.0316886343061924,-0.7642687559127808,1.8626807928085327
1660273498828385300,0.07738525390625,-0.0365755558013916,-0.7819838523864746,1.8932241201400757
1660273498830385400,0.079385498046875,-0.04329507425427437,-0.8003098368644714,1.9182696342468262
1660273498832385300,0.08138525390625,-0.04634939879179001,-0.8100836873054504,1.9274325370788574
1660273498834385400,0.083385498046875,-0.05429064854979515,-0.8259661793708801,1.945758581161499
1660273498836385300,0.08538525390625,-0.055512379854917526,-0.843070387840271,1.9628627300262451
1660273498838385400,0.087385498046875,-0.0567341111600399,-0.852233350276947,1.9659171104431152
1660273498840385300,0.08938525390625,-0.05795583873987198,-0.872391939163208,1.9787452220916748
1660273498842385400,0.091385498046875,-0.05245805159211159,-0.891328752040863,1.9854648113250732
1660273498844385300,0.09338525390625,-0.05062545835971832,-0.9029352068901062,1.9879082441329956
1660273498846385200,0.09538525390625,-0.044516805559396744,-0.9243154525756836,1.9921842813491821
1660273498848385300,0.09738525390625,-0.03413209691643715,-0.9408088326454163,1.993406057357788
1660273498850385200,0.09938525390625,-0.027412578463554382,-0.9518043994903564,1.9921842813491821
1660273498852385000,0.101385009765625,-0.015195272862911224,-0.9670760631561279,1.9909625053405762
1660273498854385200,0.10338525390625,0.004352414980530739,-0.975628137588501,1.9897408485412598
1660273498856385000,0.105385009765625,0.014737123623490334,-0.9811259508132935,1.9872974157333374
1660273498858384000,0.1073837890625,0.04833471402525902,-0.930424153804779,1.9750800132751465
1660273498860383000,0.109383056640625,0.04833471402525902,-0.930424153804779,1.9750800132751465
1660273498862381800,0.1113818359375,0.04833471402525902,-0.930424153804779,1.9750800132751465
1660273498864381000,0.113380859375,0.04833471402525902,-0.930424153804779,1.9750800132751465
1660273498866381000,0.115381103515625,0.04833471402525902,-0.9133198857307434,1.9701931476593018
1660273498868381000,0.117380859375,0.05016730725765228,-0.8931613564491272,1.9659171104431152
1660273498870381000,0.119381103515625,0.052610769867897034,-0.853455126285553,1.954310655593872
1660273498872381000,0.121380859375,0.05994115397334099,-0.813748836517334,1.944536805152893
1660273498874381000,0.123381103515625,0.06482807546854019,-0.7923685908317566,1.9390389919281006
1660273498876381000,0.125380859375,0.07765624672174454,-0.7477754354476929,1.924989104270935
1660273498878381800,0.1273818359375,0.09109527617692947,-0.701349675655365,1.9078848361968994
1660273498880382700,0.1293828125,0.10025826096534729,-0.6787476539611816,1.9029979705810547
1660273498882383600,0.131383544921875,0.12408200651407242,-0.6359871029853821,1.8791742324829102
1660273498884384500,0.133384521484375,0.15401439368724823,-0.5932264924049377,1.8516852855682373
1660273498886384400,0.13538427734375,0.16684256494045258,-0.5761222839355469,1.8388570547103882
1660273498888384500,0.137384521484375,0.2016618847846985,-0.5449681282043457,1.8052594661712646
1660273498890384400,0.13938427734375,0.23403774201869965,-0.520533561706543,1.7649424076080322
1660273498892384500,0.141384521484375,0.2554180324077606,-0.5058727860450745,1.7429512739181519
1660273498894384400,0.14338427734375,0.296956866979599,-0.48204904794692993,1.6965254545211792
1660273498896384300,0.14538427734375,0.3378848433494568,-0.4673882722854614,1.637271523475647
1660273498898383400,0.14738330078125,0.5077053904533386,-0.4851033687591553,1.3226759433746338
1660273498900382500,0.149382568359375,0.5254204869270325,-0.49670979380607605,1.2744176387786865
1660273498902381600,0.151381591796875,0.5413029789924622,-0.5095379948616028,1.2279918193817139
1660273498904380700,0.153380615234375,0.5413029789924622,-0.5095379948616028,1.2279918193817139
1660273498906379800,0.1553798828125,0.5413029789924622,-0.5095379948616028,1.2279918193817139
1660273498908379100,0.157379150390625,0.5413029789924622,-0.5095379948616028,1.2279918193817139
1660273498910379000,0.15937890625,0.5559637546539307,-0.5241987109184265,1.1791226863861084
1660273498912379100,0.161379150390625,0.5858961343765259,-0.5541311502456665,1.0795515775680542
1660273498914403300,0.1634033203125,0.6042220592498779,-0.5858961343765259,0.9763153791427612
1660273498916403200,0.1654033203125,0.6121633052825928,-0.5956699848175049,0.926835298538208
1660273498918403300,0.1674033203125,0.6188828349113464,-0.6146067976951599,0.8260425329208374
1660273498920388000,0.16938818359375,0.6188828349113464,-0.6262132525444031,0.726471483707428
1660273498922388200,0.17138818359375,0.6170502305030823,-0.6304892897605896,0.6794348955154419
1660273498924387800,0.173387939453125,0.6084981560707092,-0.6384305357933044,0.584750771522522
1660273498926387700,0.1753876953125,0.5956699848175049,-0.6414848566055298,0.49617528915405273
1660273498928387300,0.17738720703125,0.5932264924049377,-0.6439283490180969,0.4521929919719696
1660273498930387200,0.17938720703125,0.5865070223808289,-0.6445391774177551,0.3703370690345764
1660273498932385800,0.1813857421875,0.5846744179725647,-0.643317461013794,0.2945897579193115
1660273498934385700,0.1833857421875,0.5883395671844482,-0.6384305357933044,0.2603813111782074
1660273498936385500,0.185385498046875,0.597502589225769,-0.6280458569526672,0.1895209401845932
1660273498938382800,0.1873828125,0.6237697601318359,-0.6017786264419556,0.09911288321018219
1660273498940382700,0.1893828125,0.6237697601318359,-0.6017786264419556,0.09911288321018219
1660273498942382800,0.1913828125,0.6482043862342834,-0.577954888343811,0.04596760869026184
1660273498944382700,0.1933828125,0.6738607287406921,-0.5498550534248352,-0.005345070734620094
1660273498946382800,0.1953828125,0.6885215044021606,-0.5358051657676697,-0.029168816283345222
1660273498948383200,0.19738330078125,0.7123452425003052,-0.5046510696411133,-0.07437284290790558
1660273498950383000,0.199383056640625,0.739223301410675,-0.46616652607917786,-0.11407908797264099
1660273498952383200,0.20138330078125,0.7483862638473511,-0.45150578022003174,-0.1342376321554184
1660273498954383000,0.203383056640625,0.7679339647293091,-0.4185190498828888,-0.1690569519996643
1660273498956383200,0.20538330078125,0.7832056283950806,-0.38919752836227417,-0.19715675711631775
1660273498958383000,0.207383056640625,0.7880925536155701,-0.37575846910476685,-0.21303924918174744
1660273498960383000,0.209383056640625,0.7911468744277954,-0.3513238728046417,-0.23808473348617554
1660273498962383000,0.211383056640625,0.7880925536155701,-0.3268892765045166,-0.26313021779060364
1660273498964383000,0.213383056640625,0.7862599492073059,-0.3177262842655182,-0.2747366428375244
1660273498966382800,0.2153828125,0.7789295315742493,-0.29512426257133484,-0.29733866453170776
1660273498968383000,0.217383056640625,0.7624362111091614,-0.27496573328971863,-0.31444287300109863
1660273498970382800,0.2193828125,0.7532731890678406,-0.26458099484443665,-0.3217732608318329
1660273498972382700,0.2213828125,0.7306711673736572,-0.2505311071872711,-0.3400992155075073
1660273498974382800,0.2233828125,0.7056257128715515,-0.23770293593406677,-0.35475999116897583
1660273498976382700,0.2253828125,0.6903541088104248,-0.23525947332382202,-0.36331209540367126
1660273498978381800,0.2273818359375,0.6268240809440613,-0.22182044386863708,-0.395077109336853
1660273498980381400,0.22938134765625,0.6268240809440613,-0.22182044386863708,-0.395077109336853
1660273498982381300,0.23138134765625,0.6084981560707092,-0.22243130207061768,-0.4017966091632843
1660273498984381400,0.23338134765625,0.5767331719398499,-0.22182044386863708,-0.4121813178062439
1660273498986381600,0.235381591796875,0.5443572998046875,-0.22304217517375946,-0.42562034726142883
1660273498988381400,0.23738134765625,0.529696524143219,-0.22731822729110718,-0.43417248129844666
1660273498990381600,0.239381591796875,0.5015967488288879,-0.2358703464269638,-0.44577890634536743
1660273498992382000,0.2413818359375,0.4741078019142151,-0.24503332376480103,-0.4586070775985718
1660273498994381800,0.2433818359375,0.46189048886299133,-0.2505311071872711,-0.46471574902534485
1660273498996382000,0.2453818359375,0.4423427879810333,-0.2651918828487396,-0.4769330322742462
1660273498998382800,0.2473828125,0.42157337069511414,-0.2859613001346588,-0.48976120352745056
1660273499000383000,0.249383056640625,0.41057780385017395,-0.3018437922000885,-0.4940372705459595
1660273499002382800,0.2513828125,0.3916409909725189,-0.33055445551872253,-0.5038111209869385
1660273499004382700,0.2533828125,0.36964982748031616,-0.36415204405784607,-0.5044219493865967
1660273499006382800,0.2553828125,0.35926511883735657,-0.3824779987335205,-0.5032002329826355
1660273499008382200,0.25738232421875,0.3421608805656433,-0.4276820421218872,-0.4928155243396759
1660273499010382000,0.259382080078125,0.32078060507774353,-0.48143815994262695,-0.4769330322742462
1660273499012382200,0.26138232421875,0.3116176426410675,-0.5150357484817505,-0.4622722864151001
1660273499014382000,0.263382080078125,0.29878947138786316,-0.5956699848175049,-0.4329507350921631
1660273499016382000,0.2653818359375,0.28290697932243347,-0.700738787651062,-0.3956879675388336
1660273499018381300,0.26738134765625,0.2157117873430252,-1.2609021663665771,-0.2148718535900116
1660273499020380400,0.26938037109375,0.2157117873430252,-1.2609021663665771,-0.2148718535900116
1660273499022379500,0.271379638671875,0.2157117873430252,-1.2609021663665771,-0.2148718535900116
1660273499024378600,0.273378662109375,0.2157117873430252,-1.2609021663665771,-0.2148718535900116
1660273499026378800,0.275378662109375,0.20410534739494324,-1.3690253496170044,-0.18066339194774628
1660273499028379600,0.277379638671875,0.18394680321216583,-1.595656394958496,-0.11041389405727386
1660273499030379800,0.2793798828125,0.17356209456920624,-1.7208837270736694,-0.07009678333997726
1660273499032379600,0.281379638671875,0.1552361249923706,-1.9878318309783936,0.016035212203860283
1660273499034379800,0.2833798828125,0.14729487895965576,-2.271273374557495,0.10705413669347763
1660273499036379600,0.285379638671875,0.13813190162181854,-2.4203245639801025,0.15531249344348907
1660273499038380500,0.287380615234375,0.13263411819934845,-2.725757122039795,0.25305092334747314
1660273499040381400,0.28938134765625,0.14240795373916626,-3.0379092693328857,0.35262197256088257
1660273499042381600,0.291381591796875,0.14729487895965576,-3.197345018386841,0.4008803069591522
1660273499044381400,0.29338134765625,0.1705077588558197,-3.513773202896118,0.4980078935623169
1660273499046381300,0.29538134765625,0.21021400392055511,-3.8247036933898926,0.5878050923347473
1660273499048381400,0.29738134765625,0.23342688381671906,-3.9810850620269775,0.633009135723114
1660273499050381300,0.29938134765625,0.2822960913181305,-4.284685134887695,0.7191411256790161
1660273499052381200,0.301381103515625,0.33971744775772095,-4.57056999206543,0.7954992651939392
1660273499054381300,0.30338134765625,0.36964982748031616,-4.70618200302124,0.8352054953575134
1660273499056381200,0.305381103515625,0.4289037585258484,-4.962745666503906,0.9103419184684753
1660273499058380300,0.30738037109375,0.6665303111076355,-5.68112325668335,1.1388055086135864
1660273499060379400,0.30937939453125,0.6665303111076355,-5.7648115158081055,1.1388055086135864
1660273499062378800,0.311378662109375,0.6982953548431396,-5.7648115158081055,1.1644618511199951
1660273499064377900,0.3133779296875,0.6982953548431396,-5.7648115158081055,1.1644618511199951
1660273499066378000,0.3153779296875,0.6982953548431396,-5.7648115158081055,1.1644618511199951
1660273499068378000,0.317378173828125,0.7648796439170837,-5.929134368896484,1.2090550661087036
1660273499070378200,0.319378173828125,0.8320748209953308,-6.07268762588501,1.2377656698226929
1660273499072378400,0.32137841796875,0.8644506931304932,-6.142326354980469,1.2469286918640137
1660273499074378200,0.323378173828125,0.9347001910209656,-6.262666702270508,1.257924199104309
1660273499076378400,0.32537841796875,1.0043388605117798,-6.365292072296143,1.2542591094970703
1660273499078378800,0.327378662109375,1.0367146730422974,-6.408663749694824,1.2499829530715942
1660273499080379600,0.329379638671875,1.1069642305374146,-6.474637031555176,1.2286027669906616
1660273499082380500,0.331380615234375,1.1698832511901855,-6.505180358886719,1.1968377828598022
1660273499084381400,0.33338134765625,1.2028700113296509,-6.4960174560546875,1.1779009103775024
1660273499086381300,0.33538134765625,1.2651783227920532,-6.430655002593994,1.1345294713974
1660273499088380400,0.33738037109375,1.3262648582458496,-6.326807498931885,1.0764973163604736
1660273499090380300,0.33938037109375,1.3592514991760254,-6.271218776702881,1.0361801385879517
1660273499092380400,0.34138037109375,1.422170639038086,-6.149045944213867,0.9384417533874512
1660273499094380300,0.34338037109375,1.4911984205245972,-6.028705596923828,0.8132143616676331
1660273499096380400,0.34538037109375,1.525406837463379,-5.969451427459717,0.7399105429649353
1660273499098379500,0.347379638671875,1.7734181880950928,-5.275508403778076,0.03680463135242462
1660273499100378600,0.349378662109375,1.7795268297195435,-5.185100555419922,-0.031612277030944824
1660273499102378000,0.3513779296875,1.7795268297195435,-5.185100555419922,-0.031612277030944824
1660273499104377000,0.353377197265625,1.7893006801605225,-5.090416431427002,-0.09269879758358002
1660273499106376200,0.355376220703125,1.7893006801605225,-5.090416431427002,-0.09269879758358002
1660273499108375300,0.357375244140625,1.7893006801605225,-5.090416431427002,-0.09269879758358002
1660273499110375400,0.35937548828125,1.7905223369598389,-5.003062725067139,-0.1488984078168869
1660273499112375300,0.361375244140625,1.785024642944336,-4.82896614074707,-0.25213462114334106
1660273499114375400,0.36337548828125,1.782581090927124,-4.745277404785156,-0.294895201921463
1660273499116376000,0.3653759765625,1.775250792503357,-4.593172073364258,-0.35964691638946533
1660273499118356000,0.36735595703125,1.7709747552871704,-4.445953845977783,-0.39996400475502014
1660273499120356000,0.369356201171875,1.7685312032699585,-4.378758430480957,-0.41340306401252747
1660273499122356000,0.37135595703125,1.7679203748703003,-4.251087665557861,-0.4219551682472229
1660273499124356000,0.373356201171875,1.7721964120864868,-4.1344122886657715,-0.4158465266227722
1660273499126356000,0.37535595703125,1.774029016494751,-4.076380252838135,-0.4054618179798126
1660273499128353500,0.377353515625,1.7886898517608643,-3.9676461219787598,-0.3877467215061188
1660273499130353700,0.379353759765625,1.8039613962173462,-3.8607447147369385,-0.3608686327934265
1660273499132353500,0.381353515625,1.8125135898590088,-3.8100428581237793,-0.3449861407279968
1660273499134353700,0.383353759765625,1.8308395147323608,-3.7135262489318848,-0.31322115659713745
1660273499136353500,0.385353515625,1.8516088724136353,-3.6231181621551514,-0.2802344262599945
1660273499138351000,0.38735107421875,1.8760435581207275,-3.5455381870269775,-0.2509129047393799
1660273499140351000,0.38935107421875,1.890093445777893,-3.510718822479248,-0.23869559168815613
1660273499142351000,0.39135107421875,1.9151389598846436,-3.445967197418213,-0.21670444309711456
1660273499144351200,0.393351318359375,1.929188847541809,-3.41542387008667,-0.20631973445415497
1660273499146351400,0.395351318359375,1.9585102796554565,-3.359835147857666,-0.18860463798046112
1660273499148351200,0.397351318359375,1.9878318309783936,-3.306689977645874,-0.1745547503232956
1660273499150351400,0.399351318359375,2.0037143230438232,-3.279201030731201,-0.17150041460990906
1660273499152351500,0.4013515625,2.041588068008423,-3.2327752113342285,-0.1635591685771942
1660273499154351600,0.4033515625,2.0819051265716553,-3.1887929439544678,-0.164170041680336
1660273499156351500,0.4053515625,2.0996201038360596,-3.170466899871826,-0.1647808998823166
1660273499158351600,0.4073515625,2.145435094833374,-3.136258602142334,-0.1739438772201538
1660273499160351500,0.4093515625,2.1894173622131348,-3.108158826828003,-0.18860463798046112
1660273499162351600,0.4113515625,2.2138519287109375,-3.097774028778076,-0.19593502581119537
1660273499164351500,0.4133515625,2.259666919708252,-3.0800588130950928,-0.21242839097976685
1660273499166351600,0.4153515625,2.3091468811035156,-3.0733394622802734,-0.23319780826568604
1660273499168351500,0.4173515625,2.335414171218872,-3.0727286338806152,-0.24236078560352325
1660273499170351600,0.4193515625,2.385505199432373,-3.0733394622802734,-0.2606867551803589
1660273499172351500,0.4213515625,2.4337635040283203,-3.0818915367126465,-0.2790127098560333
1660273499174351600,0.4233515625,2.461252450942993,-3.0880000591278076,-0.2912299931049347
1660273499176351700,0.425351806640625,2.521728038787842,-3.1075477600097656,-0.30894508957862854
1660273499178350800,0.427350830078125,2.6439011096954346,-3.1521410942077637,-0.35414913296699524
1660273499180350000,0.429349853515625,2.6439011096954346,-3.1521410942077637,-0.35414913296699524
1660273499182350000,0.43135009765625,2.675666093826294,-3.1649692058563232,-0.3663664162158966
1660273499184350000,0.433349853515625,2.739806890487671,-3.1906254291534424,-0.39385536313056946
1660273499186350000,0.43535009765625,2.7746262550354004,-3.203453779220581,-0.4072943925857544
1660273499188350500,0.4373505859375,2.843654155731201,-3.2242231369018555,-0.4378376603126526
1660273499190350600,0.4393505859375,2.913292646408081,-3.2413272857666016,-0.4683809280395508
1660273499192350500,0.4413505859375,2.9499447345733643,-3.248046875,-0.48609602451324463
1660273499194350600,0.4433505859375,3.025081157684326,-3.253544569015503,-0.5227479338645935
1660273499196350500,0.4453505859375,3.1099913120269775,-3.2608749866485596,-0.5642867684364319
1660273499198351400,0.447351318359375,3.1545844078063965,-3.2627077102661133,-0.5868887901306152
1660273499200351200,0.449351318359375,3.2462143898010254,-3.265151023864746,-0.6327036619186401
1660273499202351400,0.451351318359375,3.3439526557922363,-3.264540195465088,-0.6858489513397217
1660273499204351200,0.453351318359375,3.3916001319885254,-3.2633185386657715,-0.7127270102500916
1660273499206351400,0.455351318359375,3.493614673614502,-3.2572097778320312,-0.7689266204833984
1660273499208351500,0.4573515625,3.597461700439453,-3.2492685317993164,-0.8281805515289307
1660273499210351600,0.4593515625,3.6512179374694824,-3.2443816661834717,-0.8593347072601318
1660273499212351500,0.4613515625,3.7575085163116455,-3.2297208309173584,-0.9228646755218506
1660273499214351400,0.463351318359375,3.8692967891693115,-3.205897092819214,-0.9857838153839111
1660273499216351500,0.4653515625,3.926107406616211,-3.1930689811706543,-1.0199922323226929
1660273499218350600,0.4673505859375,4.31461763381958,-3.055013418197632,-1.2447906732559204
1660273499220349700,0.469349609375,4.31461763381958,-3.055013418197632,-1.2447906732559204
1660273499222348800,0.471348876953125,4.31461763381958,-3.055013418197632,-1.2447906732559204
1660273499224348000,0.473347900390625,4.31461763381958,-3.055013418197632,-1.2447906732559204
1660273499226347500,0.475347412109375,4.367763042449951,-3.0256919860839844,-1.2759448289871216
1660273499228348200,0.47734814453125,4.463057994842529,-2.9646053314208984,-1.3309226036071777
1660273499230348300,0.479348388671875,4.551022529602051,-2.8974101543426514,-1.3865114450454712
1660273499232348400,0.481348388671875,4.591950416564941,-2.8607583045959473,-1.410946011543274
1660273499234348300,0.483348388671875,4.667086601257324,-2.7831783294677734,-1.4628695249557495
1660273499236348200,0.48534814453125,4.736114501953125,-2.6994898319244385,-1.5117387771606445
1660273499238349000,0.48734912109375,4.767268657684326,-2.6072492599487305,-1.5349516868591309
1660273499240350000,0.489349853515625,4.827133655548096,-2.5565474033355713,-1.5832099914550781
1660273499242349800,0.491349853515625,4.882111549377441,-2.449035167694092,-1.630246639251709
1660273499244350000,0.493349853515625,4.909600257873535,-2.3891704082489014,-1.6552921533584595
1660273499246349800,0.495349853515625,4.954804420471191,-2.273716688156128,-1.7047722339630127
1660273499248349700,0.497349609375,4.9993977546691895,-2.156430721282959,-1.7481436729431152
1660273499250349800,0.499349853515625,5.015891075134277,-2.0941224098205566,-1.7731890678405762
1660273499252349700,0.501349609375,5.052542686462402,-1.9713385105133057,-1.8238909244537354
1660273499254349800,0.503349853515625,5.080031871795654,-1.8332829475402832,-1.8752036094665527
1660273499256349700,0.505349609375,5.090416431427002,-1.7612009048461914,-1.8996381759643555
1660273499258349000,0.50734912109375,5.135009765625,-1.063592791557312,-2.0810651779174805
1660273499260348200,0.50934814453125,5.135009765625,-1.063592791557312,-2.0810651779174805
1660273499262347300,0.51134716796875,5.140507221221924,-0.9890671968460083,-2.099391222000122
1660273499264346400,0.513346435546875,5.140507221221924,-0.9890671968460083,-2.099391222000122
1660273499266345500,0.515345458984375,5.143561840057373,-0.9151524901390076,-2.113440990447998
1660273499268344300,0.51734423828125,5.143561840057373,-0.9151524901390076,-2.113440990447998
1660273499270344400,0.519344482421875,5.146615982055664,-0.8412377834320068,-2.1293234825134277
1660273499272344300,0.52134423828125,5.15089225769043,-0.6995170712471008,-2.1562016010284424
1660273499274344000,0.523343994140625,5.152113914489746,-0.6304892897605896,-2.1678080558776855
1660273499276344000,0.525343994140625,5.152724742889404,-0.4942663311958313,-2.1904101371765137
1660273499278344200,0.52734423828125,5.154557228088379,-0.3714824318885803,-2.208125114440918
1660273499280344000,0.529343994140625,5.153946399688721,-0.30978503823280334,-2.216066360473633
1660273499282344000,0.531343994140625,5.152113914489746,-0.19799669086933136,-2.2270619869232178
1660273499284343800,0.53334375,5.151503086090088,-0.09414960443973541,-2.238668441772461
1660273499286343400,0.535343505859375,5.151503086090088,-0.04772384837269783,-2.2429444789886475
1660273499288343300,0.53734326171875,5.149670600891113,0.03779728710651398,-2.2459988594055176
1660273499290343200,0.53934326171875,5.152113914489746,0.11171197891235352,-2.2490530014038086
1660273499292343000,0.541343017578125,5.153946399688721,0.14469870924949646,-2.249664068222046
1660273499294343000,0.543343017578125,5.162498474121094,0.20212003588676453,-2.2508857250213623
1660273499296342800,0.5453427734375,5.174715995788574,0.24060454964637756,-2.249664068222046
1660273499298340000,0.547340087890625,5.250463008880615,0.3047454059123993,-2.2258403301239014
1660273499300337700,0.549337646484375,5.262680530548096,0.2998584806919098,-2.221564292907715
1660273499302335500,0.55133544921875,5.273065090179443,0.29313895106315613,-2.216677188873291
1660273499304333600,0.55333349609375,5.273065090179443,0.29313895106315613,-2.216677188873291
1660273499306331600,0.55533154296875,5.273065090179443,0.29313895106315613,-2.216677188873291
1660273499308330000,0.557330078125,5.273065090179443,0.29313895106315613,-2.216677188873291
1660273499310330000,0.559330078125,5.28650426864624,0.28153252601623535,-2.21056866645813
1660273499312330000,0.561330078125,5.312771320343018,0.2546544373035431,-2.202016592025757
1660273499314330000,0.563330078125,5.339649677276611,0.21555908024311066,-2.189188241958618
1660273499316330000,0.565330078125,5.357364654541016,0.19601137936115265,-2.1836905479431152
1660273499318330000,0.567330078125,5.384853363037109,0.1483639031648636,-2.172084093093872
1660273499320330000,0.569330078125,5.416618347167969,0.09888381510972977,-2.1598668098449707
1660273499322330000,0.571330078125,5.43189001083374,0.07078400999307632,-2.1531472206115723
1660273499324330000,0.573330078125,5.45999002456665,0.015195272862911224,-2.138486623764038
1660273499326330000,0.575330078125,5.4887003898620605,-0.040393464267253876,-2.1207714080810547
1660273499328330000,0.577330078125,5.501528739929199,-0.06849326193332672,-2.1140518188476562
1660273499330334000,0.579333984375,5.5247416496276855,-0.12713633477687836,-2.0951151847839355
1660273499332333800,0.581333740234375,5.544900417327881,-0.18761198222637177,-2.076789140701294
1660273499334334000,0.583333984375,5.55467414855957,-0.21815524995326996,-2.0645718574523926
1660273499336336100,0.585336181640625,5.569945812225342,-0.2755765914916992,-2.043191432952881
1660273499338333400,0.58733349609375,5.587049961090088,-0.35071301460266113,-2.01509165763855
1660273499340333600,0.58933349609375,5.587049961090088,-0.35071301460266113,-2.01509165763855
1660273499342333400,0.59133349609375,5.5943803787231445,-0.40080395340919495,-1.9949331283569336
1660273499344333600,0.59333349609375,5.5974345207214355,-0.4423427879810333,-1.9766072034835815
1660273499346333400,0.59533349609375,5.601099967956543,-0.4631122052669525,-1.9662225246429443
1660273499348333600,0.59733349609375,5.602321624755859,-0.4948772192001343,-1.9509508609771729
1660273499350333700,0.599333740234375,5.602321624755859,-0.5260313153266907,-1.9314031600952148
1660273499352333800,0.601333740234375,5.601710796356201,-0.5406920909881592,-1.9228510856628418
1660273499354333700,0.603333740234375,5.595602035522461,-0.5614615082740784,-1.9033033847808838
1660273499356333800,0.605333740234375,5.588271617889404,-0.5767331719398499,-1.8861991167068481
1660273499358334000,0.607333984375,5.584606647491455,-0.5840635299682617,-1.874592661857605
1660273499360333800,0.609333740234375,5.571167469024658,-0.5913938879966736,-1.8519906997680664
1660273499362333400,0.61133349609375,5.554063320159912,-0.5981134176254272,-1.8293887376785278
1660273499364333600,0.61333349609375,5.545511245727539,-0.5968917012214661,-1.817171335220337
1660273499366333400,0.61533349609375,5.5216875076293945,-0.597502589225769,-1.7890715599060059
1660273499368333600,0.61733349609375,5.489922523498535,-0.5999460220336914,-1.75303053855896
1660273499370333400,0.61933349609375,5.473428726196289,-0.5981134176254272,-1.7383698225021362
1660273499372333600,0.62133349609375,5.434333801269531,-0.5968917012214661,-1.7023286819458008
1660273499374333400,0.62333349609375,5.388518810272217,-0.5938373804092407,-1.666898488998413
1660273499376333600,0.62533349609375,5.361640453338623,-0.5871178507804871,-1.649794340133667
1660273499378332700,0.627332763671875,5.249852180480957,-0.567570149898529,-1.58259916305542
1660273499380331800,0.629331787109375,5.249852180480957,-0.567570149898529,-1.58259916305542
1660273499382332000,0.631331787109375,5.216254711151123,-0.5596289038658142,-1.5642731189727783
1660273499384331800,0.633331787109375,5.15089225769043,-0.5406920909881592,-1.5349516868591309
1660273499386332000,0.635331787109375,5.080031871795654,-0.5162574648857117,-1.5099061727523804
1660273499388332000,0.63733203125,5.0446014404296875,-0.5052618980407715,-1.4970779418945312
1660273499390331600,0.63933154296875,4.970686912536621,-0.4789946973323822,-1.4732542037963867
1660273499392331500,0.64133154296875,4.894328594207764,-0.4533383846282959,-1.448819637298584
1660273499394331600,0.64333154296875,4.852789878845215,-0.4386776089668274,-1.4378241300582886
1660273499396331000,0.6453310546875,4.771544933319092,-0.4124104082584381,-1.4146112203598022
1660273499398332000,0.647331787109375,4.689688682556152,-0.38553231954574585,-1.3926200866699219
1660273499400331800,0.649331787109375,4.648760795593262,-0.3720932900905609,-1.3797918558120728
1660273499402332000,0.651331787109375,4.563850402832031,-0.34399348497390747,-1.354135513305664
1660273499404331800,0.653331787109375,4.478940486907959,-0.3171154260635376,-1.326035737991333
1660273499406332000,0.655331787109375,4.434957981109619,-0.29940032958984375,-1.3138184547424316
1660273499408332500,0.65733251953125,4.3463826179504395,-0.26824620366096497,-1.2863295078277588
1660273499410332700,0.659332763671875,4.253530979156494,-0.22792910039424896,-1.2545645236968994
1660273499412332500,0.66133251953125,4.205272674560547,-0.2108248621225357,-1.2399036884307861
1660273499414332400,0.66333251953125,4.105090618133545,-0.17172949016094208,-1.2075278759002686
1660273499416332500,0.66533251953125,4.004298210144043,-0.1350775808095932,-1.1763737201690674
1660273499418331600,0.66733154296875,3.6353354454040527,-0.03367394581437111,-1.0780243873596191
1660273499420330800,0.669330810546875,3.6353354454040527,-0.03367394581437111,-1.0780243873596191
1660273499422330000,0.671330078125,3.6353354454040527,-0.03367394581437111,-1.0780243873596191
1660273499424329200,0.6733291015625,3.6353354454040527,-0.03367394581437111,-1.0780243873596191
1660273499426329300,0.675329345703125,3.5815792083740234,-0.022067507728934288,-1.0651962757110596
1660273499428329000,0.677328857421875,3.479564905166626,-0.0031306843739002943,-1.0407617092132568
1660273499430329000,0.6793291015625,3.4233651161193848,0.006032294128090143,-1.0267117023468018
1660273499432329200,0.6813291015625,3.326237678527832,0.02252565510571003,-1.0010554790496826
1660273499434329000,0.6833291015625,3.2272775173187256,0.04329507425427437,-0.9778425693511963
1660273499436329200,0.6853291015625,3.1826841831207275,0.05490151420235634,-0.9619600176811218
1660273499438330000,0.687330078125,3.0922763347625732,0.07750352472066879,-0.9399688839912415
1660273499440330800,0.689330810546875,3.0091986656188965,0.10193813592195511,-0.915534257888794
1660273499442331000,0.691330810546875,2.9701032638549805,0.11476630717515945,-0.899040937423706
1660273499444330800,0.693330810546875,2.8949668407440186,0.13859005272388458,-0.8770498037338257
1660273499446331000,0.695330810546875,2.826549768447876,0.16730071604251862,-0.851393461227417
1660273499448330800,0.697330810546875,2.7941739559173584,0.17951802909374237,-0.8367326855659485
1660273499450330400,0.699330322265625,2.7324767112731934,0.21006128191947937,-0.8159632682800293
1660273499452330200,0.701330322265625,2.681774854660034,0.24182628095149994,-0.7945829629898071
1660273499454330400,0.703330322265625,2.6555075645446777,0.25587618350982666,-0.7848091125488281
1660273499456330200,0.705330322265625,2.613968849182129,0.28214338421821594,-0.7695375084877014
1660273499458329600,0.70732958984375,2.4991259574890137,0.37743836641311646,-0.7163922190666199
1660273499460328700,0.70932861328125,2.4991259574890137,0.37743836641311646,-0.7163922190666199
1660273499462327800,0.711327880859375,2.488741397857666,0.38904479146003723,-0.7108944058418274
1660273499464327000,0.713326904296875,2.480800151824951,0.4018729627132416,-0.7035640478134155
1660273499466326000,0.715325927734375,2.480800151824951,0.4018729627132416,-0.7035640478134155
1660273499468324400,0.717324462890625,2.480800151824951,0.4018729627132416,-0.7035640478134155
1660273499470324500,0.719324462890625,2.4655284881591797,0.4256967306137085,-0.6956228017807007
1660273499472324000,0.721323974609375,2.4588088989257812,0.43791401386260986,-0.6882924437522888
1660273499474324200,0.72332421875,2.447202444076538,0.4660138189792633,-0.6803511381149292
1660273499476324000,0.725323974609375,2.4392611980438232,0.49472448229789734,-0.6772968173027039
1660273499478325000,0.727324951171875,2.4337635040283203,0.5087743997573853,-0.669355571269989
1660273499480326000,0.729325927734375,2.427043914794922,0.5448154211044312,-0.669966459274292
1660273499482326800,0.731326904296875,2.419102668762207,0.5832999348640442,-0.6669121384620667
1660273499484327400,0.733327392578125,2.4148266315460205,0.6022367477416992,-0.6669121384620667
1660273499486327600,0.73532763671875,2.4068853855133057,0.6437755823135376,-0.6663012504577637
1660273499488327700,0.73732763671875,2.401998519897461,0.6908122301101685,-0.669355571269989
1660273499490327300,0.739327392578125,2.396500825881958,0.7109707593917847,-0.670577347278595
1660273499492327400,0.741327392578125,2.3922245502471924,0.7543421983718872,-0.6766859889030457
1660273499494327300,0.743327392578125,2.3873376846313477,0.7995462417602539,-0.6846272349357605
1660273499496327200,0.7453271484375,2.385505199432373,0.8203156590461731,-0.6882924437522888
1660273499498326300,0.747326171875,2.374509572982788,0.9986883401870728,-0.7316638231277466
1660273499500325400,0.749325439453125,2.3751204013824463,1.0157924890518188,-0.7365507483482361
1660273499502324700,0.75132470703125,2.3751204013824463,1.0157924890518188,-0.7365507483482361
1660273499504323800,0.75332373046875,2.374509572982788,1.031675100326538,-0.7438811659812927
1660273499506323000,0.755322998046875,2.374509572982788,1.031675100326538,-0.7438811659812927
1660273499508322300,0.757322265625,2.374509572982788,1.031675100326538,-0.7438811659812927
1660273499510322200,0.759322265625,2.374509572982788,1.0493900775909424,-0.7493789196014404
1660273499512322300,0.761322265625,2.3757312297821045,1.077489972114563,-0.7652614116668701
1660273499514322400,0.763322509765625,2.376953125,1.0976485013961792,-0.773202657699585
1660273499516322300,0.765322265625,2.371455192565918,1.1300243139266968,-0.7866417169570923
1660273499518321400,0.7673212890625,2.369011878967285,1.161178469657898,-0.801913321018219
1660273499520321300,0.7693212890625,2.3665683269500732,1.1764501333236694,-0.8110763430595398
1660273499522321400,0.7713212890625,2.3616814613342285,1.2039390802383423,-0.8281805515289307
1660273499524321300,0.7733212890625,2.3500750064849854,1.2277628183364868,-0.8471173644065857
1660273499526321400,0.7753212890625,2.34885311126709,1.2387583255767822,-0.8562803864479065
1660273499528321300,0.7773212890625,2.329916477203369,1.2552517652511597,-0.8715519905090332
1660273499530321400,0.7793212890625,2.3091468811035156,1.2680798768997192,-0.8910996913909912
1660273499532321300,0.7813212890625,2.299373149871826,1.276021122932434,-0.8996517658233643
1660273499534321400,0.7833212890625,2.2755494117736816,1.2845731973648071,-0.9167560338973999
1660273499536321500,0.785321533203125,2.249282121658325,1.2900710105895996,-0.9344711303710938
1660273499538319000,0.787319091796875,2.223625898361206,1.2949579954147339,-0.9479101300239563
1660273499540318500,0.789318359375,2.2089650630950928,1.2974014282226562,-0.9570731520652771
1660273499542319400,0.7913193359375,2.18147611618042,1.2961796522140503,-0.9717338681221008
1660273499544319200,0.7933193359375,2.1631500720977783,1.293736219406128,-0.9790642857551575
1660273499546319400,0.7953193359375,2.1350502967834473,1.292514443397522,-0.9961684942245483
1660273499548319500,0.797319580078125,2.1051180362701416,1.2851841449737549,-1.0102183818817139
1660273499550319400,0.7993193359375,2.08984637260437,1.2833515405654907,-1.0169379711151123
1660273499552319500,0.801319580078125,2.0574705600738525,1.2711342573165894,-1.031598687171936
1660273499554319400,0.8033193359375,2.0238728523254395,1.2613604068756104,-1.0438159704208374
1660273499556319500,0.805319580078125,2.0079903602600098,1.2515865564346313,-1.0493137836456299
1660273499558319400,0.8073193359375,1.9743927717208862,1.235093116760254,-1.0639744997024536
1660273499560319500,0.809319580078125,1.9395735263824463,1.210047721862793,-1.0749701261520386
1660273499562319400,0.8113193359375,1.9243018627166748,1.1984412670135498,-1.078635334968567
1660273499564319500,0.813319580078125,1.8931477069854736,1.1715631484985352,-1.09024178981781
1660273499566319400,0.8153193359375,1.858939290046692,1.1459068059921265,-1.100015640258789
1660273499568319500,0.817319580078125,1.8442785739898682,1.1324677467346191,-1.1024590730667114
1660273499570319400,0.8193193359375,1.8155678510665894,1.1062005758285522,-1.1122329235076904
1660273499572319500,0.821319580078125,1.7874680757522583,1.0787116289138794,-1.116508960723877
1660273499574319400,0.8233193359375,1.772807240486145,1.0640509128570557,-1.1189523935317993
1660273499576319500,0.825319580078125,1.747761845588684,1.039616346359253,-1.1220067739486694
1660273499578318600,0.827318603515625,1.7013360261917114,0.9870818853378296,-1.1195632219314575
1660273499580317700,0.829317626953125,1.7013360261917114,0.9870818853378296,-1.1195632219314575
1660273499582317800,0.83131787109375,1.690340518951416,0.9742537140846252,-1.117730736732483
1660273499584318000,0.83331787109375,1.6689602136611938,0.9473756551742554,-1.1104003190994263
1660273499586317800,0.83531787109375,1.6591863632202148,0.9321039915084839,-1.1061242818832397
1660273499588318000,0.83731787109375,1.6390278339385986,0.9021716117858887,-1.095739483833313
1660273499590317800,0.83931787109375,1.6158149242401123,0.866741418838501,-1.0780243873596191
1660273499592318000,0.84131787109375,1.605430245399475,0.8514698147773743,-1.069472312927246
1660273499594318000,0.843318115234375,1.584049940109253,0.8142070174217224,-1.051146388053894
1660273499596318000,0.84531787109375,1.5614479780197144,0.772057294845581,-1.031598687171936
1660273499598318800,0.84731884765625,1.5553392171859741,0.753731369972229,-1.0193814039230347
1660273499600319000,0.849319091796875,1.5333480834960938,0.7091382145881653,-0.9955576062202454
1660273499602318600,0.851318603515625,1.5131895542144775,0.6566037535667419,-0.9699012637138367
1660273499604318700,0.853318603515625,1.5015830993652344,0.6327800154685974,-0.9558513760566711
1660273499606318600,0.855318603515625,1.4820353984832764,0.5851325392723083,-0.9240863919258118
1660273499608318500,0.857318359375,1.4637094736099243,0.5313764214515686,-0.8941540122032166
1660273499610318600,0.859318603515625,1.452713966369629,0.5063309073448181,-0.8770498037338257
1660273499612318700,0.861318603515625,1.4325553178787231,0.46357035636901855,-0.8440630435943604
1660273499614318600,0.863318603515625,1.4075099229812622,0.41897720098495483,-0.8086328506469727
1660273499616318700,0.865318603515625,1.3971251249313354,0.39759692549705505,-0.7903069257736206
1660273499618317800,0.86731787109375,1.309160590171814,0.29741501808166504,-0.6553056836128235
1660273499620317000,0.86931689453125,1.309160590171814,0.29741501808166504,-0.6553056836128235
1660273499622316000,0.87131591796875,1.309160590171814,0.29741501808166504,-0.6553056836128235
1660273499624315400,0.8733154296875,1.2975541353225708,0.2894737720489502,-0.6369797587394714
1660273499626315300,0.875315185546875,1.2804498672485352,0.2803107798099518,-0.6186537742614746
1660273499628315400,0.8773154296875,1.2676217555999756,0.27236953377723694,-0.5978843569755554
1660273499630315300,0.879315185546875,1.2383002042770386,0.25587618350982666,-0.5618433356285095
1660273499632315400,0.8813154296875,1.203480839729309,0.24488060176372528,-0.5251913666725159
1660273499634315300,0.883315185546875,1.186376690864563,0.2387719452381134,-0.5068654417991638
1660273499636315400,0.8853154296875,1.1497247219085693,0.22716552019119263,-0.47021353244781494
1660273499638316300,0.88731640625,1.1130728721618652,0.2192242592573166,-0.43417248129844666
1660273499640317200,0.889317138671875,1.0941359996795654,0.2131156176328659,-0.41890084743499756
1660273499642317000,0.891317138671875,1.0556515455245972,0.2027309089899063,-0.38469240069389343
1660273499644317400,0.8933173828125,1.0153343677520752,0.19906571507453918,-0.34865134954452515
1660273499649107500,0.898107421875,0.9939541220664978,0.19478964805603027,-0.3309362530708313
1660273499651107600,0.900107666015625,0.9548587203025818,0.19234620034694672,-0.29856038093566895
1660273499653107500,0.902107421875,0.9163742065429688,0.1935679316520691,-0.26374107599258423
1660273499655107600,0.904107666015625,0.8931613564491272,0.19051359593868256,-0.24846944212913513
1660273499657107500,0.906107421875,0.8546768426895142,0.19662225246429443,-0.2142609804868698
1660273499659107300,0.908107421875,0.8155814409255981,0.19906571507453918,-0.1794416606426239
1660273499661106700,0.910106689453125,0.6665303111076355,0.2235003262758255,-0.040164388716220856
1660273499663105800,0.912105712890625,0.6469826698303223,0.22472205758094788,-0.020616702735424042
1660273499665105000,0.91410498046875,0.6280458569526672,0.23083069920539856,-0.004734205547720194
1660273499667104000,0.91610400390625,0.6280458569526672,0.23083069920539856,-0.004734205547720194
1660273499669103000,0.91810302734375,0.6280458569526672,0.23083069920539856,-0.004734205547720194
1660273499671102500,0.9201025390625,0.6280458569526672,0.23083069920539856,-0.004734205547720194
1660273499673102600,0.9221025390625,0.6121633052825928,0.23266330361366272,0.01237002108246088
1660273499675102700,0.924102783203125,0.5803983211517334,0.23571762442588806,0.044745877385139465
1660273499677102600,0.9261025390625,0.5455790162086487,0.2387719452381134,0.08017606288194656
1660273499679102500,0.9281025390625,0.5278639197349548,0.23571762442588806,0.09728029370307922
1660273499681102600,0.9301025390625,0.4942663311958313,0.23144157230854034,0.13271047174930573
1660273499683102500,0.9321025390625,0.458225280046463,0.21678079664707184,0.16569720208644867
1660273499685102600,0.9341025390625,0.4386776089668274,0.21128301322460175,0.18096883594989777
1660273499687102500,0.9361025390625,0.3989713490009308,0.19967657327651978,0.21334469318389893
1660273499689102600,0.9381025390625,0.35926511883735657,0.19234620034694672,0.2444988191127777
1660273499691102500,0.9401025390625,0.33544138073921204,0.18501581251621246,0.2616030275821686
1660273499693102600,0.9421025390625,0.2920699417591095,0.1734093725681305,0.28725937008857727
1660273499695103000,0.94410302734375,0.24503332376480103,0.16180293262004852,0.3116939961910248
1660273499697103000,0.94610302734375,0.22243130207061768,0.1581377387046814,0.3214678466320038
1660273499699103000,0.94810302734375,0.1711186319589615,0.14469870924949646,0.3459024429321289
1660273499701100500,0.9501005859375,-0.0671188160777092,0.11659890413284302,0.41431936621665955
1660273499703098400,0.952098388671875,-0.09766208380460739,0.11476630717515945,0.41859540343284607
1660273499705096200,0.95409619140625,-0.13187053799629211,0.1123228445649147,0.42470407485961914
1660273499707094300,0.95609423828125,-0.13187053799629211,0.1123228445649147,0.42470407485961914
1660273499709092400,0.95809228515625,-0.13187053799629211,0.1123228445649147,0.42470407485961914
1660273499711090700,0.960090576171875,-0.13187053799629211,0.1123228445649147,0.42470407485961914
1660273499713090600,0.962090576171875,-0.19478964805603027,0.11171197891235352,0.4424191415309906
1660273499715090700,0.964090576171875,-0.22716552019119263,0.10804679244756699,0.4521929919719696
1660273499717090600,0.966090576171875,-0.2900846302509308,0.10804679244756699,0.4735732674598694
1660273499719090700,0.968090576171875,-0.34811684489250183,0.10193813592195511,0.49617528915405273
1660273499721090600,0.970090576171875,-0.37194058299064636,0.10499246418476105,0.5071708559989929
1660273499723090700,0.972090576171875,-0.420809805393219,0.09399688988924026,0.5395467281341553
1660273499725090600,0.974090576171875,-0.4623486399650574,0.08422304689884186,0.5774203538894653
1660273499727090700,0.976090576171875,-0.48372891545295715,0.0768926590681076,0.5981897711753845
1660273499729090600,0.978090576171875,-0.5161047577857971,0.06406449526548386,0.6403394937515259
1660273499731090700,0.980090576171875,-0.5417611002922058,0.046960264444351196,0.6904304623603821
1660273499733091600,0.982091552734375,-0.5558109879493713,0.0365755558013916,0.716697633266449
1660273499735091500,0.984091552734375,-0.5753586888313293,0.009697485715150833,0.7722864151000977
1660273499737091600,0.986091552734375,-0.591852068901062,-0.02451096847653389,0.8278751373291016
1660273499739091700,0.988091796875,-0.5997933149337769,-0.044058654457330704,0.859029233455658
1660273499741089000,0.990089111328125,-0.6223953366279602,-0.11614075303077698,0.9524916410446167
1660273499743091000,0.992091064453125,-0.6278930902481079,-0.14179709553718567,0.9885326623916626
1660273499745091000,0.994091064453125,-0.6333909034729004,-0.17356209456920624,1.0190759897232056
1660273499747091200,0.99609130859375,-0.6407212615013123,-0.23892466723918915,1.0881037712097168
1660273499749091300,0.99809130859375,-0.6511059999465942,-0.30856332182884216,1.1510227918624878
1660273499751091000,1.000091064453125,-0.6578255295753479,-0.348880410194397,1.1827877759933472
1660273499753090300,1.00209033203125,-0.6712645292282104,-0.43012550473213196,1.2444852590560913
1660273499755090400,1.00409033203125,-0.6865361928939819,-0.510759711265564,1.3037391901016235
1660273499757090300,1.00609033203125,-0.6975317597389221,-0.5529094338417053,1.3336715698242188
1660273499759090400,1.00809033203125,-0.723798930644989,-0.6335436105728149,1.3892602920532227
1660273499761090300,1.01009033203125,-0.7592291235923767,-0.711123526096344,1.4399621486663818
1660273499763090400,1.01209033203125,-0.7812203168869019,-0.7477754354476929,1.4619532823562622
1660273499765090300,1.01409033203125,-0.8337547183036804,-0.8161923289299011,1.5041029453277588
1660273499767091000,1.016091064453125,-0.8948412537574768,-0.8748353719711304,1.5431983470916748
1660273499769091000,1.018091064453125,-0.9308822751045227,-0.9059895277023315,1.5596916675567627
1660273499771091000,1.020091064453125,-1.010294795036316,-0.9579130411148071,1.5877914428710938
1660273499773091000,1.022091064453125,-1.0964267253875732,-0.9982301592826843,1.6097826957702637
1660273499775091200,1.02409130859375,-1.14163076877594,-1.0153343677520752,1.6183347702026367
1660273499777091000,1.026091064453125,-1.2424235343933105,-1.0354928970336914,1.6256651878356934
1660273499779091200,1.02809130859375,-1.295568823814392,-1.0446559190750122,1.6311628818511963
1660273499781090600,1.030090576171875,-1.5838972330093384,-1.0214430093765259,1.6244434118270874
1660273499783089700,1.032089599609375,-1.5838972330093384,-1.0214430093765259,1.6244434118270874
1660273499785089500,1.034089599609375,-1.5838972330093384,-1.0214430093765259,1.6244434118270874
1660273499787089700,1.036089599609375,-1.7085137367248535,-0.9963975548744202,1.6152803897857666
1660273499789089500,1.038089599609375,-1.8349628448486328,-0.9621891379356384,1.6030631065368652
1660273499791089700,1.040089599609375,-1.8997145891189575,-0.9438631534576416,1.599397897720337
1660273499793089500,1.042089599609375,-2.028607130050659,-0.9004917144775391,1.5877914428710938
1660273499795089400,1.04408935546875,-2.156888723373413,-0.853455126285553,1.5749633312225342
1660273499797089500,1.046089599609375,-2.2198078632354736,-0.8265770077705383,1.5682437419891357
1660273499799089400,1.04808935546875,-2.341370105743408,-0.7777078151702881,1.5578590631484985
1660273499801090300,1.05009033203125,-2.460488796234131,-0.7282277345657349,1.5425875186920166
1660273499803089700,1.052089599609375,-2.516688346862793,-0.7037931084632874,1.5389223098754883
1660273499805089500,1.054089599609375,-2.622368097305298,-0.6604216694831848,1.5267049074172974
1660273499807089400,1.05608935546875,-2.723160982131958,-0.6237697601318359,1.5230398178100586
1660273499809089500,1.058089599609375,-2.7726409435272217,-0.6048329472541809,1.5199854373931885
1660273499811089700,1.060089599609375,-2.8642706871032715,-0.5669593214988708,1.5193746089935303
1660273499813090000,1.062090087890625,-2.9534571170806885,-0.5339725613594055,1.5279266834259033
1660273499815090000,1.06408984375,-2.991330862045288,-0.5174792408943176,1.5297592878341675
1660273499817090000,1.066090087890625,-3.06646728515625,-0.49609893560409546,1.543809175491333
1660273499819090000,1.06808984375,-3.139770984649658,-0.4838816225528717,1.5609134435653687
1660273499821089300,1.07008935546875,-3.339524030685425,-0.5254204869270325,1.656819224357605
1660273499823088400,1.07208837890625,-3.339524030685425,-0.5254204869270325,1.656819224357605
1660273499825087500,1.07408740234375,-3.339524030685425,-0.5254204869270325,1.656819224357605
1660273499827086600,1.076086669921875,-3.339524030685425,-0.5254204869270325,1.656819224357605
1660273499829086500,1.07808642578125,-3.362125873565674,-0.539470374584198,1.6751452684402466
1660273499831086600,1.080086669921875,-3.4030539989471436,-0.577954888343811,1.7203491926193237
1660273499833086500,1.08208642578125,-3.4232125282287598,-0.5993351340293884,1.7411186695098877
1660273499835086300,1.08408642578125,-3.4561991691589355,-0.6463717818260193,1.7881553173065186
1660273499837086500,1.08608642578125,-3.4836881160736084,-0.7025713920593262,1.8345810174942017
1660273499839086300,1.08808642578125,-3.496516227722168,-0.7331146597862244,1.856572151184082
1660273499841087000,1.0900869140625,-3.5227835178375244,-0.7942011952400208,1.9005545377731323
1660273499843088000,1.092087890625,-3.5398876667022705,-0.8687267303466797,1.9439259767532349
1660273499845088000,1.094087890625,-3.5502724647521973,-0.9035460352897644,1.9616410732269287
1660273499847087900,1.096087890625,-3.5643222332000732,-0.9774607419967651,1.9970711469650269
1660273499849088000,1.098087890625,-3.5795938968658447,-1.0556515455245972,2.027003526687622
1660273499851087600,1.100087646484375,-3.5844810009002686,-1.0929142236709595,2.0386099815368652
1660273499853087500,1.10208740234375,-3.5930330753326416,-1.1686615943908691,2.060601234436035
1660273499855087600,1.104087646484375,-3.602195978164673,-1.2383002042770386,2.0734293460845947
1660273499857087700,1.106087646484375,-3.605861186981201,-1.271897792816162,2.079538106918335
1660273499859087600,1.108087646484375,-3.6125807762145996,-1.3378711938858032,2.0838141441345215
1660273499861087000,1.1100869140625,-3.6400697231292725,-1.5070809125900269,2.04960560798645
1660273499863086000,1.112086181640625,-3.6400697231292725,-1.5070809125900269,2.04960560798645
1660273499865085200,1.114085205078125,-3.6400697231292725,-1.5070809125900269,2.04960560798645
1660273499867084300,1.116084228515625,-3.6455674171447754,-1.527239441871643,2.0398318767547607
1660273499869084400,1.11808447265625,-3.6455674171447754,-1.527239441871643,2.0398318767547607
1660273499871084300,1.120084228515625,-3.6541194915771484,-1.5553392171859741,2.012342929840088
1660273499873084400,1.12208447265625,-3.663893461227417,-1.5797739028930664,1.9775235652923584
1660273499875084300,1.124084228515625,-3.670001983642578,-1.5883259773254395,1.9598084688186646
1660273499877084400,1.12608447265625,-3.678554058074951,-1.5962672233581543,1.9182696342468262
1660273499879084300,1.128084228515625,-3.6871063709259033,-1.5913803577423096,1.8730655908584595
1660273499881085200,1.130085205078125,-3.6901605129241943,-1.5907694101333618,1.8455766439437866
1660273499883085800,1.1320859375,-3.6968801021575928,-1.5712217092514038,1.7954856157302856
1660273499885086700,1.134086669921875,-3.705432176589966,-1.548008918762207,1.7386752367019653
1660273499887087400,1.13608740234375,-3.7121517658233643,-1.528461217880249,1.7075210809707642
1660273499889087200,1.138087158203125,-3.723147392272949,-1.4863115549087524,1.648267149925232
1660273499891087000,1.140087158203125,-3.736586332321167,-1.4386639595031738,1.5822937488555908
1660273499893087200,1.142087158203125,-3.74513840675354,-1.4081207513809204,1.5468635559082031
1660273499895086800,1.1440869140625,-3.76407527923584,-1.34825599193573,1.4821118116378784
1660273499897087000,1.1460869140625,-3.7848446369171143,-1.2816716432571411,1.4136948585510254
1660273499899086800,1.1480869140625,-3.7964510917663574,-1.2456306219100952,1.3752104043960571
1660273499901086200,1.150086181640625,-3.9357283115386963,-0.8699484467506409,1.0734429359436035
1660273499903085300,1.152085205078125,-3.9357283115386963,-0.8699484467506409,1.0734429359436035
1660273499905084400,1.15408447265625,-3.957108736038208,-0.8198575377464294,1.04289972782135
1660273499907083500,1.15608349609375,-3.9748237133026123,-0.7715991735458374,1.0166324377059937
1660273499909082600,1.15808251953125,-3.9748237133026123,-0.7715991735458374,1.0166324377059937
1660273499911082200,1.160082275390625,-3.9748237133026123,-0.7715991735458374,1.0166324377059937
1660273499913082400,1.162082275390625,-3.9974257946014404,-0.7190647721290588,0.9891435503959656
1660273499915082000,1.16408203125,-4.036520957946777,-0.6146067976951599,0.9414960741996765
1660273499917081900,1.166081787109375,-4.057901382446289,-0.5602397918701172,0.9195048809051514
1660273499919081700,1.168081787109375,-4.105548858642578,-0.45517095923423767,0.8736900091171265
1660273499921081900,1.170081787109375,-4.150142192840576,-0.3476586937904358,0.8345946669578552
1660273499923081700,1.172081787109375,-4.1709113121032715,-0.2957351505756378,0.8181012868881226
1660273499925081900,1.174081787109375,-4.217947959899902,-0.19249890744686127,0.7814493775367737
1660273499927082200,1.176082275390625,-4.263762950897217,-0.09537133574485779,0.7490735054016113
1660273499929082400,1.178082275390625,-4.2851433753967285,-0.05138903856277466,0.7338019013404846
1660273499931082500,1.18008251953125,-4.330958366394043,0.035964690148830414,0.70692378282547
1660273499933083000,1.182082763671875,-4.377384185791016,0.1178206354379654,0.6855435371398926
1660273499935083000,1.1840830078125,-4.3999857902526855,0.15874861180782318,0.6757696866989136
1660273499937083100,1.186083251953125,-4.443357467651367,0.23266330361366272,0.6629415154457092
1660273499939083300,1.188083251953125,-4.484896183013916,0.3035236597061157,0.6543893814086914
1660273499941080600,1.19008056640625,-4.525213241577148,0.3646101951599121,0.6513350605964661
1660273499943080700,1.192080810546875,-4.545372009277344,0.3951534628868103,0.651945948600769
1660273499945080600,1.19408056640625,-4.582023620605469,0.4501313269138336,0.6580545902252197
1660273499947080700,1.196080810546875,-4.598517417907715,0.47395506501197815,0.6611089110374451
1660273499949080600,1.19808056640625,-4.631504058837891,0.5148830413818359,0.6721044778823853
1660273499951080400,1.20008056640625,-4.660214424133301,0.5503132343292236,0.6867652535438538
1660273499953080300,1.202080322265625,-4.6760969161987305,0.563141405582428,0.6989825367927551
1660273499955080400,1.20408056640625,-4.700531482696533,0.58146733045578,0.716697633266449
1660273499957079800,1.206079833984375,-4.724355220794678,0.5942955017089844,0.7392996549606323
1660273499959079700,1.20807958984375,-4.736572742462158,0.5942955017089844,0.7527387142181396
1660273499961079800,1.210079833984375,-4.7567315101623535,0.592462956905365,0.784503698348999
1660273499963079700,1.21207958984375,-4.775057315826416,0.5832999348640442,0.8174903988838196
1660273499965079800,1.214079833984375,-4.782387733459473,0.5765804052352905,0.8345946669578552
1660273499967079700,1.21607958984375,-4.799491882324219,0.5545892715454102,0.8755226135253906
1660273499969079800,1.218079833984375,-4.810487270355225,0.5277112126350403,0.917061448097229
1660273499971079700,1.22007958984375,-4.8184285163879395,0.5130504369735718,0.9396634697914124
1660273499973079800,1.222079833984375,-4.830035209655762,0.47456592321395874,0.9873109459877014
1660273499975079400,1.224079345703125,-4.839808940887451,0.4305836260318756,1.0361801385879517
1660273499977079600,1.22607958984375,-4.845306873321533,0.40737074613571167,1.067945122718811
1660273499979079400,1.228079345703125,-4.8544697761535645,0.3603341281414032,1.1192578077316284
1660273499981078800,1.230078857421875,-4.8660759925842285,0.2546544373035431,1.2322678565979004
1660273499983078000,1.232077880859375,-4.8660759925842285,0.2546544373035431,1.2322678565979004
1660273499985077800,1.234077880859375,-4.869130611419678,0.22533291578292847,1.2622003555297852
1660273499987078000,1.236077880859375,-4.875239372253418,0.16913332045078278,1.317789077758789
1660273499989077800,1.238077880859375,-4.876461029052734,0.14042264223098755,1.3458888530731201
1660273499991078000,1.240077880859375,-4.881958484649658,0.0823904499411583,1.3965907096862793
1660273499993077800,1.242077880859375,-4.886845588684082,0.0188604649156332,1.449125051498413
1660273499995077600,1.24407763671875,-4.88745641708374,-0.012293662875890732,1.4747813940048218
1660273499997077800,1.246077880859375,-4.891732692718506,-0.07215845584869385,1.5212072134017944
1660273499999077600,1.24807763671875,-4.896008491516113,-0.1301906555891037,1.5682437419891357
1660273500001078500,1.25007861328125,-4.89723014831543,-0.15951219201087952,1.5902349948883057
1660273500003078400,1.252078369140625,-4.900284767150879,-0.2108248621225357,1.6311628818511963
1660273500005078500,1.25407861328125,-4.90333890914917,-0.25786149501800537,1.6684256792068481
1660273500007078700,1.25607861328125,-4.903949737548828,-0.2804635167121887,1.686140775680542
1660273500009078500,1.25807861328125,-4.903949737548828,-0.3171154260635376,1.7160731554031372
1660273500011078700,1.26007861328125,-4.903949737548828,-0.3531564772129059,1.7453947067260742
1660273500013078800,1.262078857421875,-4.904560565948486,-0.368428111076355,1.7582229375839233
1660273500015079000,1.264078857421875,-4.903949737548828,-0.3916409909725189,1.780824899673462
1660273500017079300,1.266079345703125,-4.900895595550537,-0.4075234830379486,1.7973182201385498
1660273500019079200,1.2680791015625,-4.899673938751221,-0.41546472907066345,1.808924674987793
1660273500021078500,1.27007861328125,-4.88745641708374,-0.4185190498828888,1.8345810174942017
1660273500023077600,1.27207763671875,-4.88745641708374,-0.4185190498828888,1.8345810174942017
1660273500025076700,1.27407666015625,-4.88745641708374,-0.4185190498828888,1.8345810174942017
1660273500027075800,1.276075927734375,-4.886845588684082,-0.4142429828643799,1.8364136219024658
1660273500029075700,1.27807568359375,-4.886234760284424,-0.40996694564819336,1.8358027935028076
1660273500031075800,1.280075927734375,-4.88134765625,-0.40569087862968445,1.83824622631073
1660273500033075700,1.28207568359375,-4.875239372253418,-0.39041924476623535,1.8290832042694092
1660273500035076000,1.284076171875,-4.864243507385254,-0.37575846910476685,1.8229745626449585
1660273500037076200,1.286076171875,-4.861189365386963,-0.36537376046180725,1.818698525428772
1660273500039076000,1.288076171875,-4.847139358520508,-0.3470478057861328,1.8077030181884766
1660273500041076500,1.290076416015625,-4.833700180053711,-0.3311653137207031,1.7942639589309692
1660273500043077400,1.292077392578125,-4.82453727722168,-0.32078060507774353,1.7863227128982544
1660273500045077200,1.2940771484375,-4.804378986358643,-0.3012329339981079,1.7667750120162964
1660273500047077400,1.296077392578125,-4.781166076660156,-0.2810743749141693,1.7472273111343384
1660273500049077200,1.2980771484375,-4.767726898193359,-0.26946792006492615,1.7368426322937012
1660273500051077400,1.300077392578125,-4.737794399261475,-0.24564418196678162,1.7148514986038208
1660273500053077200,1.3020771484375,-4.703586101531982,-0.21937698125839233,1.6940820217132568
1660273500055077400,1.304077392578125,-4.685871124267578,-0.20899227261543274,1.6818647384643555
1660273500057077200,1.3060771484375,-4.6479973793029785,-0.1808924674987793,1.659873604774475
1660273500059077400,1.308077392578125,-4.608291149139404,-0.15340353548526764,1.6354389190673828
1660273500061076500,1.310076416015625,-4.4305291175842285,-0.05749769136309624,1.5529721975326538
1660273500063075800,1.312075927734375,-4.4305291175842285,-0.05749769136309624,1.5529721975326538
1660273500065075000,1.314074951171875,-4.406705379486084,-0.046502117067575455,1.5431983470916748
1660273500067074000,1.316073974609375,-4.381659984588623,-0.03611740842461586,1.5358679294586182
1660273500069073200,1.3180732421875,-4.381659984588623,-0.03611740842461586,1.5358679294586182
1660273500071072300,1.320072265625,-4.381659984588623,-0.03611740842461586,1.5358679294586182
1660273500073072000,1.322072021484375,-4.3578362464904785,-0.02695442922413349,1.5248724222183228
1660273500075072300,1.324072265625,-4.309577941894531,-0.013515393249690533,1.504713773727417
1660273500077072100,1.326072021484375,-4.255821704864502,0.0005345070967450738,1.4839444160461426
1660273500079072300,1.328072265625,-4.231387138366699,0.004810563754290342,1.4735597372055054
1660273500081073000,1.330072998046875,-4.17763090133667,0.015806138515472412,1.450346827507019
1660273500083073800,1.33207373046875,-4.116544723510742,0.02802344225347042,1.4259121417999268
1660273500085074700,1.33407470703125,-4.087833881378174,0.02863430790603161,1.4143058061599731
1660273500087075600,1.33607568359375,-4.02613639831543,0.03474296256899834,1.3880385160446167
1660273500089075700,1.33807568359375,-3.9644391536712646,0.04085161164402962,1.3617713451385498
1660273500091075800,1.340075927734375,-3.9326741695404053,0.04207334294915199,1.3489432334899902
1660273500093075700,1.34207568359375,-3.870365858078003,0.044516805559396744,1.3220651149749756
1660273500095075300,1.344075439453125,-3.806225061416626,0.047571130096912384,1.2976305484771729
1660273500097075500,1.346075439453125,-3.7738490104675293,0.04818199574947357,1.2841914892196655
1660273500099075300,1.348075439453125,-3.7097082138061523,0.04879286140203476,1.2573133707046509
1660273500101075000,1.350074951171875,-3.4482579231262207,0.04818199574947357,1.1595749855041504
1660273500103074000,1.352073974609375,-3.4482579231262207,0.04818199574947357,1.1595749855041504
1660273500105073200,1.3540732421875,-3.415271282196045,0.04573853686451912,1.1467467546463013
1660273500107072500,1.356072509765625,-3.3810627460479736,0.04634939879179001,1.1314750909805298
1660273500109071600,1.358071533203125,-3.3810627460479736,0.04634939879179001,1.1314750909805298
1660273500111071000,1.360071044921875,-3.3810627460479736,0.04634939879179001,1.1314750909805298
1660273500113070800,1.36207080078125,-3.3157002925872803,0.044516805559396744,1.1058188676834106
1660273500115070700,1.36407080078125,-3.2802700996398926,0.04024074971675873,1.0911580324172974
1660273500117070800,1.36607080078125,-3.212463855743408,0.03718642145395279,1.0648908615112305
1660273500119070700,1.36807080078125,-3.141603708267212,0.032910365611314774,1.0367910861968994
1660273500121071600,1.370071533203125,-3.1049516201019287,0.030466904863715172,1.0209085941314697
1660273500123072500,1.372072509765625,-3.027371883392334,0.026190847158432007,0.9897544384002686
1660273500125073200,1.3740732421875,-2.9528462886810303,0.01947133056819439,0.9592111706733704
1660273500127074000,1.376073974609375,-2.916194438934326,0.01702786795794964,0.9433286786079407
1660273500129075000,1.378074951171875,-2.838003635406494,0.011530081741511822,0.9103419184684753
1660273500131075800,1.380075927734375,-2.7616453170776367,0.009697485715150833,0.8810204267501831
1660273500133076000,1.382075927734375,-2.7219390869140625,0.007254024967551231,0.8657487630844116
1660273500135076000,1.384076171875,-2.6431374549865723,0.002367102773860097,0.8400924205780029
1660273500137076200,1.386076171875,-2.5704445838928223,-0.002519819187000394,0.8156577944755554
1660273500139076000,1.388076171875,-2.5325708389282227,-0.00557414535433054,0.8003861904144287
1660273500141075500,1.390075439453125,-2.421393394470215,-0.014737123623490334,0.7661777138710022
1660273500143074600,1.392074462890625,-2.385963201522827,-0.01595885492861271,0.7545713186264038
1660273500145074400,1.394074462890625,-2.3511440753936768,-0.020234910771250725,0.7441865801811218
1660273500147074300,1.39607421875,-2.279061794281006,-0.02451096847653389,0.7228062748908997
1660273500149074200,1.39807421875,-2.211866617202759,-0.029397889971733093,0.7002043128013611
1660273500151074300,1.40007421875,-2.178269147872925,-0.031230485066771507,0.6892086863517761
1660273500153074200,1.40207421875,-2.1110739707946777,-0.03672827407717705,0.6721044778823853
1660273500155074600,1.404074462890625,-2.0457112789154053,-0.041004329919815063,0.6537785530090332
1660273500157074400,1.406074462890625,-2.011502981185913,-0.04283692687749863,0.6433938145637512
1660273500159074600,1.408074462890625,-1.9461402893066406,-0.04772384837269783,0.6250678896903992
1660273500161075500,1.410075439453125,-1.8801668882369995,-0.04894557595252991,0.6097962260246277
1660273500163076400,1.412076416015625,-1.84534752368927,-0.049556441605091095,0.6006332635879517
1660273500165077000,1.414076904296875,-1.7769306898117065,-0.05322163552045822,0.5835290551185608
1660273500167077600,1.41607763671875,-1.7109571695327759,-0.05871942266821861,0.5688682794570923
1660273500169078300,1.418078369140625,-1.6779705286026,-0.06238461285829544,0.5621487498283386
1660273500171079200,1.4200791015625,-1.6058883666992188,-0.07032585889101028,0.5493205785751343
1660273500173079000,1.4220791015625,-1.5380823612213135,-0.07826711237430573,0.5407684445381165
1660273500175079200,1.4240791015625,-1.5026521682739258,-0.08193229883909225,0.5340489149093628
1660273500177079000,1.4260791015625,-1.4366786479949951,-0.09231700748205185,0.526107668876648
1660273500179079200,1.4280791015625,-1.3670400381088257,-0.10147999227046967,0.5163338780403137
1660273500181078300,1.430078369140625,-1.2344822883605957,-0.12224940955638885,0.49984049797058105
1660273500183077400,1.432077392578125,-1.2344822883605957,-0.12224940955638885,0.49984049797058105
1660273500185077500,1.434077392578125,-1.1984412670135498,-0.12713633477687836,0.49495357275009155
1660273500187077600,1.43607763671875,-1.1672871112823486,-0.13202324509620667,0.49067750573158264
1660273500189077500,1.438077392578125,-1.0994811058044434,-0.14240795373916626,0.4821254014968872
1660273500191077000,1.4400771484375,-1.0304533243179321,-0.1558469980955124,0.46990808844566345
1660273500193077000,1.442076904296875,-0.9974665641784668,-0.16256651282310486,0.4619668424129486
1660273500195077000,1.4440771484375,-0.9253844618797302,-0.17234036326408386,0.4473060667514801
1660273500197076700,1.44607666015625,-0.857578456401825,-0.18333593010902405,0.432034432888031
1660273500199076900,1.448076904296875,-0.8227591514587402,-0.18944458663463593,0.4222606122493744
1660273500201077500,1.450077392578125,-0.7500661611557007,-0.20349448919296265,0.4057672321796417
1660273500203078400,1.452078369140625,-0.6779840588569641,-0.21326832473278046,0.38499781489372253
1660273500205078500,1.45407861328125,-0.6443864703178406,-0.21937698125839233,0.3727805018424988
1660273500207078700,1.45607861328125,-0.572915256023407,-0.22915083169937134,0.35445454716682434
1660273500209078300,1.458078369140625,-0.5038874745368958,-0.23709207773208618,0.33246341347694397
1660273500211078400,1.460078369140625,-0.4666246771812439,-0.24258986115455627,0.3214678466320038
1660273500213078300,1.462078369140625,-0.4006512463092804,-0.25297456979751587,0.29764407873153687
1660273500215078400,1.464078369140625,-0.3352886736392975,-0.2615266740322113,0.27382034063339233
1660273500217078500,1.46607861328125,-0.3041345477104187,-0.26335927844047546,0.26343563199043274
1660273500219078400,1.468078369140625,-0.23999367654323578,-0.27313312888145447,0.24144448339939117
1660273500221077500,1.470077392578125,-0.02802344225347042,-0.29451340436935425,0.16508632898330688
1660273500223076900,1.472076904296875,-0.02802344225347042,-0.29451340436935425,0.16508632898330688
1660273500225076000,1.474075927734375,-0.02802344225347042,-0.29451340436935425,0.16508632898330688
1660273500227075600,1.47607568359375,-0.02802344225347042,-0.29451340436935425,0.16508632898330688
1660273500229076000,1.478075927734375,0.0012980886967852712,-0.29878947138786316,0.15286903083324432
1660273500231076000,1.480076171875,0.061162881553173065,-0.3061198592185974,0.13209961354732513
1660273500233076000,1.482075927734375,0.12102767825126648,-0.31039589643478394,0.11071932315826416
1660273500235075600,1.48407568359375,0.14851661026477814,-0.31406110525131226,0.09911288321018219
1660273500237075500,1.486075439453125,0.21021400392055511,-0.31894803047180176,0.07590000331401825
1660273500239075600,1.48807568359375,0.2713005244731903,-0.3262783885002136,0.050854530185461044
1660273500241076000,1.490075927734375,0.3024546504020691,-0.3275001347064972,0.038637228310108185
1660273500243076900,1.492076904296875,0.36537376046180725,-0.3317761719226837,0.01237002108246088
1660273500245077000,1.494076904296875,0.429514616727829,-0.3378848433494568,-0.016340645030140877
1660273500247076900,1.496076904296875,0.4637230932712555,-0.3384957015514374,-0.029168816283345222
1660273500249076700,1.49807666015625,0.5309182405471802,-0.34460434317588806,-0.060933809727430344
1660273500251077000,1.5000771484375,0.6036112308502197,-0.34949126839637756,-0.09147707372903824
1660273500253077000,1.502076904296875,0.6390414237976074,-0.348880410194397,-0.10980302840471268
1660273500255077000,1.5040771484375,0.7123452425003052,-0.3519347310066223,-0.14340060949325562
1660273500257077200,1.5060771484375,0.7868707776069641,-0.35498905181884766,-0.1837177276611328
1660273500259077000,1.5080771484375,0.8296313881874084,-0.35498905181884766,-0.2050980031490326
1660273500261076200,1.510076171875,1.1698832511901855,-0.35498905181884766,-0.40912699699401855
1660273500263075600,1.51207568359375,1.2193633317947388,-0.3562107980251312,-0.43905940651893616
1660273500265074700,1.51407470703125,1.2663999795913696,-0.35559993982315063,-0.47021353244781494
1660273500267073800,1.51607373046875,1.2663999795913696,-0.35559993982315063,-0.47021353244781494
1660273500269073700,1.51807373046875,1.2663999795913696,-0.35559993982315063,-0.47021353244781494
1660273500271072800,1.52007275390625,1.3140474557876587,-0.3568216562271118,-0.5032002329826355
1660273500273072600,1.52207275390625,1.3641384840011597,-0.3537673354148865,-0.536797821521759
1660273500275072800,1.52407275390625,1.4667638540267944,-0.3537673354148865,-0.6088799238204956
1660273500277072600,1.52607275390625,1.519909143447876,-0.3519347310066223,-0.6461427211761475
1660273500279072500,1.528072509765625,1.6268105506896973,-0.35010215640068054,-0.7231117486953735
1660273500281072600,1.53007275390625,1.7331010103225708,-0.34949126839637756,-0.7994698882102966
1660273500283072500,1.532072509765625,1.7911332845687866,-0.34949126839637756,-0.8379544019699097
1660273500285072600,1.53407275390625,1.899867296218872,-0.3513238728046417,-0.9167560338973999
1660273500287073000,1.536072998046875,2.01104474067688,-0.35498905181884766,-0.9955576062202454
1660273500289073200,1.5380732421875,2.0654118061065674,-0.3562107980251312,-1.0322095155715942
1660273500291071000,1.540071044921875,2.1747565269470215,-0.35987597703933716,-1.107956886291504
1660273500293071000,1.542071044921875,2.2865450382232666,-0.368428111076355,-1.180649757385254
1660273500295071200,1.5440712890625,2.3396902084350586,-0.368428111076355,-1.2142473459243774
1660273500297071400,1.5460712890625,2.44659161567688,-0.37453675270080566,-1.2759448289871216
1660273500299071500,1.548071533203125,2.5486061573028564,-0.3769802153110504,-1.3333661556243896
1660273500301069000,1.550069091796875,2.907794952392578,-0.3733150362968445,-1.4811954498291016
1660273500303066600,1.552066650390625,2.9450576305389404,-0.3733150362968445,-1.4946345090866089
1660273500305064400,1.554064453125,2.9841530323028564,-0.37087157368659973,-1.5019649267196655
1660273500307062500,1.5560625,2.9841530323028564,-0.37087157368659973,-1.5019649267196655
1660273500309060600,1.558060546875,2.9841530323028564,-0.37087157368659973,-1.5019649267196655
1660273500311060000,1.56006005859375,2.9841530323028564,-0.37087157368659973,-1.5019649267196655
1660273500313060000,1.56206005859375,3.0177507400512695,-0.368428111076355,-1.5123496055603027
1660273500315060000,1.56406005859375,3.0843350887298584,-0.35926511883735657,-1.5190691947937012
1660273500317060000,1.56606005859375,3.1466431617736816,-0.34949126839637756,-1.5282320976257324
1660273500319060000,1.56806005859375,3.175964832305908,-0.3476586937904358,-1.5294538736343384
1660273500321060000,1.57006005859375,3.228499174118042,-0.33544138073921204,-1.5288430452346802
1660273500323060000,1.57206005859375,3.273092269897461,-0.32383492588996887,-1.52273428440094
1660273500325060000,1.57406005859375,3.2920291423797607,-0.3183371424674988,-1.5184582471847534
1660273500327060000,1.57606005859375,3.3299028873443604,-0.306730717420578,-1.5099061727523804
1660273500329060000,1.57806005859375,3.354337453842163,-0.2920699417591095,-1.4982997179031372
1660273500331060000,1.58006005859375,3.3671655654907227,-0.2865721583366394,-1.4909693002700806
1660273500333060000,1.58206005859375,3.3891568183898926,-0.27435484528541565,-1.4744759798049927
1660273500335060200,1.584060302734375,3.4056501388549805,-0.25847235321998596,-1.4549282789230347
1660273500337060400,1.586060302734375,3.4111478328704834,-0.25297456979751587,-1.4445436000823975
1660273500339060500,1.588060546875,3.42153263092041,-0.23709207773208618,-1.4237741231918335
1660273500341058000,1.59005810546875,3.4306955337524414,-0.20715968310832977,-1.384678840637207
1660273500343058200,1.59205810546875,3.4306955337524414,-0.20715968310832977,-1.384678840637207
1660273500345058300,1.594058349609375,3.4331390857696533,-0.18883371353149414,-1.3547463417053223
1660273500347058200,1.59605810546875,3.430084705352783,-0.17783814668655396,-1.3382530212402344
1660273500349058300,1.598058349609375,3.4251978397369385,-0.15767958760261536,-1.3058772087097168
1660273500351058200,1.60005810546875,3.4221434593200684,-0.13874277472496033,-1.2741122245788574
1660273500353058300,1.602058349609375,3.4166457653045654,-0.12896892428398132,-1.2563971281051636
1660273500355058200,1.60405810546875,3.4111478328704834,-0.11186470091342926,-1.221577763557434
1660273500357058300,1.606058349609375,3.407482624053955,-0.0898735523223877,-1.1867583990097046
1660273500359058200,1.60805810546875,3.404428482055664,-0.08071056753396988,-1.1714868545532227
1660273500361058300,1.610058349609375,3.401374101638794,-0.06360634416341782,-1.1391109228134155
1660273500363058200,1.61205810546875,3.4032065868377686,-0.04466952010989189,-1.107956886291504
1660273500365058300,1.614058349609375,3.4032065868377686,-0.037950001657009125,-1.0920743942260742
1660273500367058400,1.616058349609375,3.410537004470825,-0.017791450023651123,-1.0658071041107178
1660273500369058300,1.618058349609375,3.426419496536255,-0.0037415495608001947,-1.042594313621521
1660273500371058400,1.620058349609375,3.4447455406188965,0.012751812115311623,-1.0224356651306152
1660273500373058600,1.62205859375,3.4532976150512695,0.01702786795794964,-1.0138835906982422
1660273500375058400,1.624058349609375,3.476510524749756,0.0316886343061924,-0.9980010986328125
1660273500377059800,1.626059814453125,3.5033886432647705,0.044516805559396744,-0.9882272481918335
1660273500379060000,1.62806005859375,3.5204927921295166,0.05245805159211159,-0.9863946437835693
1660273500381059000,1.63005908203125,3.596850872039795,0.07872525602579117,-0.9870055317878723
1660273500383058400,1.632058349609375,3.596850872039795,0.07872525602579117,-0.9870055317878723
1660273500385058300,1.634058349609375,3.619452953338623,0.08422304689884186,-0.9900598526000977
1660273500387058400,1.636058349609375,3.6738200187683105,0.0921642929315567,-1.0004445314407349
1660273500389058300,1.638058349609375,3.703141450881958,0.0970512181520462,-1.0089967250823975
1660273500391058400,1.640058349609375,3.764228105545044,0.10438159853219986,-1.0261008739471436
1660273500393058000,1.64205810546875,3.8271470069885254,0.1123228445649147,-1.041372537612915
1660273500395058000,1.644057861328125,3.8631882667541504,0.11598803848028183,-1.0535898208618164
1660273500397058000,1.64605810546875,3.937713623046875,0.12515102326869965,-1.0731375217437744
1660273500399058000,1.648057861328125,4.012850284576416,0.13003793358802795,-1.0939068794250488
1660273500401059300,1.650059326171875,4.050724029541016,0.13431400060653687,-1.1061242818832397
1660273500403059200,1.65205908203125,4.1313581466674805,0.14408783614635468,-1.1311696767807007
1660273500405059000,1.65405908203125,4.2095489501953125,0.14408783614635468,-1.1549934148788452
1660273500407059200,1.65605908203125,4.252309322357178,0.14469870924949646,-1.1672108173370361
1660273500409059000,1.65805908203125,4.334775924682617,0.13859005272388458,-1.1885910034179688
1660273500411058700,1.66005859375,4.414799690246582,0.12881620228290558,-1.2148582935333252
1660273500413058800,1.662058837890625,4.455727577209473,0.12087496370077133,-1.2252429723739624
1660273500415059000,1.664058837890625,4.535140037536621,0.10560332983732224,-1.249066710472107
1660273500417058800,1.666058837890625,4.613941669464111,0.08788824081420898,-1.269836187362671
1660273500419059000,1.668058837890625,4.651815414428711,0.07994698733091354,-1.2820534706115723
1660273500421058000,1.67005810546875,4.896161079406738,-0.00618501054123044,-1.335809588432312
1660273500423057200,1.67205712890625,4.896161079406738,-0.00618501054123044,-1.335809588432312
1660273500425056300,1.67405615234375,4.924871921539307,-0.017791450023651123,-1.342529058456421
1660273500427055400,1.676055419921875,4.924871921539307,-0.017791450023651123,-1.342529058456421
1660273500429055000,1.678054931640625,4.954804420471191,-0.029397889971733093,-1.3474160432815552
1660273500431055000,1.68005517578125,4.982903957366943,-0.04283692687749863,-1.3504703044891357
1660273500433055000,1.682054931640625,5.037271022796631,-0.06666067242622375,-1.3571898937225342
1660273500435054800,1.684054931640625,5.0891947746276855,-0.09048441797494888,-1.3578007221221924
1660273500437053700,1.6860537109375,5.108131408691406,-0.10331258177757263,-1.3578007221221924
1660273500439053800,1.6880537109375,5.15089225769043,-0.12652546167373657,-1.3504703044891357
1660273500441054500,1.690054443359375,5.187543869018555,-0.1503492146730423,-1.3382530212402344
1660273500443054600,1.6920546875,5.203426361083984,-0.16134478151798248,-1.3309226036071777
1660273500445054700,1.6940546875,5.22969388961792,-0.1857793927192688,-1.3125966787338257
1660273500447054800,1.696054931640625,5.248630523681641,-0.20899227261543274,-1.2906055450439453
1660273500449054700,1.6980546875,5.259015083312988,-0.22182044386863708,-1.2777774333953857
1660273500451054800,1.700054931640625,5.2706217765808105,-0.24869851768016815,-1.2496775388717651
1660273500453055200,1.70205517578125,5.2803955078125,-0.27374398708343506,-1.2221885919570923
1660273500455055000,1.70405517578125,5.283449649810791,-0.28351783752441406,-1.2056952714920044
1660273500457055200,1.70605517578125,5.285893440246582,-0.3079524338245392,-1.1720976829528809
1660273500459055000,1.70805517578125,5.287115097045898,-0.3329979181289673,-1.1366674900054932
1660273500461054000,1.710053955078125,5.2565717697143555,-0.4289037585258484,-0.9851729273796082
1660273500463053000,1.712052978515625,5.248630523681641,-0.44173192977905273,-0.9668469429016113
1660273500465052200,1.71405224609375,5.241300106048584,-0.4545601010322571,-0.9454666972160339
1660273500467051300,1.71605126953125,5.241300106048584,-0.4545601010322571,-0.9454666972160339
1660273500469050400,1.71805029296875,5.241300106048584,-0.4545601010322571,-0.9454666972160339
1660273500471050000,1.720050048828125,5.241300106048584,-0.4545601010322571,-0.9454666972160339
1660273500473049900,1.7220498046875,5.227860927581787,-0.46616652607917786,-0.925308108329773
1660273500475050000,1.724050048828125,5.204037189483643,-0.4893794059753418,-0.8868235945701599
1660273500477049900,1.7260498046875,5.175326824188232,-0.5168683528900146,-0.8471173644065857
1660273500479049500,1.728049560546875,5.159444332122803,-0.5272530913352966,-0.8287914395332336
1660273500481061400,1.730061279296875,5.1227922439575195,-0.5529094338417053,-0.7915286421775818
1660273500483061500,1.7320615234375,5.086751461029053,-0.5785657167434692,-0.7554876208305359
1660273500485061400,1.734061279296875,5.066592693328857,-0.5920047760009766,-0.7420485615730286
1660273500487061500,1.7360615234375,5.025664806365967,-0.6170502305030823,-0.7096726894378662
1660273500489061600,1.7380615234375,4.985347747802734,-0.6365979313850403,-0.6840163469314575
1660273500491061800,1.740061767578125,4.964578151702881,-0.643317461013794,-0.669355571269989
1660273500493062100,1.742062255859375,4.918763160705566,-0.6610325574874878,-0.6467535495758057
1660273500495062300,1.744062255859375,4.875391960144043,-0.6756933331489563,-0.6259841322898865
1660273500497062400,1.7460625,4.851568222045898,-0.681191086769104,-0.6162103414535522
1660273500499062500,1.7480625,4.806364059448242,-0.6879106163978577,-0.6021603941917419
1660273500501060000,1.75006005859375,4.598059177398682,-0.7135669589042664,-0.5612324476242065
1660273500503058000,1.752057861328125,4.576067924499512,-0.711123526096344,-0.5600107312202454
1660273500505055700,1.7540556640625,4.576067924499512,-0.711123526096344,-0.5600107312202454
1660273500507053600,1.756053466796875,4.5546875,-0.709901750087738,-0.5587889552116394
1660273500509051600,1.7580517578125,4.5546875,-0.709901750087738,-0.5587889552116394
1660273500511050000,1.760050048828125,4.5546875,-0.709901750087738,-0.5587889552116394
1660273500513050000,1.762050048828125,4.531474590301514,-0.7086800336837769,-0.5600107312202454
1660273500515050000,1.764050048828125,4.508261680603027,-0.7050148248672485,-0.5587889552116394
1660273500517050000,1.766050048828125,4.464279651641846,-0.6952410340309143,-0.5648976564407349
1660273500519050000,1.768050048828125,4.421518802642822,-0.68241286277771,-0.5697845816612244
1660273500521051100,1.770051025390625,4.400749683380127,-0.6750824451446533,-0.5734497308731079
1660273500523051000,1.772051025390625,4.358599662780762,-0.6537021994590759,-0.5844452977180481
1660273500525051100,1.774051025390625,4.321948051452637,-0.6317110061645508,-0.5984952449798584
1660273500527051000,1.776051025390625,4.301789283752441,-0.6158285140991211,-0.6046038866043091
1660273500529051100,1.778051025390625,4.262693881988525,-0.5852852463722229,-0.6223189830780029
1660273500531051000,1.780051025390625,4.224820613861084,-0.5522985458374023,-0.6400340795516968
1660273500533051100,1.782051025390625,4.20771598815918,-0.5333617329597473,-0.650418758392334
1660273500535051300,1.78405126953125,4.168620586395264,-0.49609893560409546,-0.6656904220581055
1660273500537051100,1.786051025390625,4.128303527832031,-0.45089492201805115,-0.6919575929641724
1660273500539051000,1.788051025390625,4.110588550567627,-0.43073636293411255,-0.7035640478134155
1660273500541048300,1.79004833984375,4.045836925506592,-0.358654260635376,-0.7444919943809509
1660273500543048200,1.792048095703125,4.029343605041504,-0.3323870599269867,-0.7591527700424194
1660273500545047000,1.794047119140625,4.006741523742676,-0.30367639660835266,-0.7744244337081909
1660273500547046100,1.796046142578125,3.9639809131622314,-0.24869851768016815,-0.8055785298347473
1660273500549046000,1.7980458984375,3.9242746829986572,-0.18944458663463593,-0.8397870063781738
1660273500551046000,1.8000458984375,3.9022834300994873,-0.15645785629749298,-0.85994553565979
1660273500553045200,1.802045166015625,3.8583011627197266,-0.09353873878717422,-0.9033169746398926
1660273500555045000,1.804045166015625,3.8155407905578613,-0.026343563571572304,-0.9460775256156921
1660273500557045000,1.806044921875,3.792938709259033,0.006643159314990044,-0.9662361145019531
1660273500559045000,1.808045166015625,3.7459020614624023,0.0768926590681076,-1.0151053667068481
1660273500561045000,1.810044921875,3.7025306224823,0.14897476136684418,-1.0645854473114014
1660273500563044900,1.812044921875,3.6787068843841553,0.18623754382133484,-1.09024178981781
1660273500565044700,1.814044677734375,3.6371679306030273,0.25648704171180725,-1.144608736038208
1660273500567044900,1.816044921875,3.5931856632232666,0.33162346482276917,-1.1971431970596313
1660273500569044700,1.818044677734375,3.568751096725464,0.3701079785823822,-1.2234103679656982
1660273500571044900,1.820044921875,3.522325277328491,0.44341179728507996,-1.2747230529785156
1660273500573044700,1.822044677734375,3.4783430099487305,0.5216025710105896,-1.3254249095916748
1660273500575044900,1.824044921875,3.454519271850586,0.563141405582428,-1.3510812520980835
1660273500577044700,1.826044677734375,3.407482624053955,0.640110433101654,-1.3962851762771606
1660273500579044900,1.828044921875,3.3610570430755615,0.7213554978370667,-1.4396566152572632
1660273500581044000,1.8300439453125,3.267594575881958,0.8807913064956665,-1.5184582471847534
1660273500583043000,1.83204296875,3.267594575881958,0.8807913064956665,-1.5184582471847534
1660273500585042700,1.834042724609375,3.2431600093841553,0.9204975366592407,-1.536784291267395
1660273500587042600,1.83604248046875,3.220557928085327,0.9589820504188538,-1.553277611732483
1660273500589042700,1.838042724609375,3.17535400390625,1.0353401899337769,-1.5887078046798706
1660273500591042600,1.84004248046875,3.125262975692749,1.1080331802368164,-1.6131423711776733
1660273500593042400,1.84204248046875,3.1014392375946045,1.1477394104003906,-1.6265814304351807
1660273500595042600,1.84404248046875,3.055013418197632,1.2161563634872437,-1.6491833925247192
1660273500597042400,1.84604248046875,3.0043115615844727,1.285794973373413,-1.6705636978149414
1660273500599042600,1.84804248046875,2.977433681488037,1.3212251663208008,-1.6821701526641846
1660273500601043500,1.85004345703125,2.923677444458008,1.389031171798706,-1.7004960775375366
1660273500603043600,1.852043701171875,2.8693103790283203,1.4519503116607666,-1.715767741203308
1660273500605044000,1.8540439453125,2.8442649841308594,1.4824936389923096,-1.724930763244629
1660273500607044400,1.85604443359375,2.78745436668396,1.5441910028457642,-1.733482837677002
1660273500609044500,1.85804443359375,2.726367950439453,1.606499195098877,-1.7438675165176392
1660273500611044400,1.86004443359375,2.698268175125122,1.6352099180221558,-1.7493653297424316
1660273500613044700,1.862044677734375,2.63901424407959,1.6907986402511597,-1.7524197101593018
1660273500615044900,1.864044921875,2.5767059326171875,1.743333101272583,-1.7505871057510376
1660273500617044700,1.866044677734375,2.5461626052856445,1.76960027217865,-1.7499761581420898
1660273500619044900,1.868044921875,2.4783565998077393,1.8154151439666748,-1.7438675165176392
1660273500621044000,1.8700439453125,2.2413408756256104,1.94003164768219,-1.688889741897583
1660273500623043000,1.87204296875,2.2413408756256104,1.94003164768219,-1.688889741897583
1660273500625042200,1.874042236328125,2.2413408756256104,1.94003164768219,-1.688889741897583
1660273500627041300,1.876041259765625,2.2413408756256104,1.94003164768219,-1.688889741897583
1660273500629041200,1.878041259765625,2.209575891494751,1.9540815353393555,-1.6754506826400757
1660273500631041300,1.880041259765625,2.136883020401001,1.9772944450378418,-1.6504051685333252
1660273500633041200,1.882041259765625,2.0684661865234375,1.9962313175201416,-1.6223053932189941
1660273500635041300,1.884041259765625,2.030592441558838,2.000507354736328,-1.6058119535446167
1660273500637041200,1.886041259765625,1.9578994512557983,2.008448600769043,-1.5697709321975708
1660273500639041000,1.888041015625,1.8876500129699707,2.0157790184020996,-1.5331190824508667
1660273500641042000,1.8900419921875,1.8485546112060547,2.017611503601074,-1.514182209968567
1660273500643042800,1.892042724609375,1.7764724493026733,2.0157790184020996,-1.4732542037963867
1660273500645043200,1.894043212890625,1.7037795782089233,2.0072269439697266,-1.4268285036087036
1660273500647044000,1.896044189453125,1.669571042060852,2.0011181831359863,-1.403004765510559
1660273500649044200,1.898044189453125,1.595045566558838,1.987679123878479,-1.3529138565063477
1660273500651044000,1.900044189453125,1.525406837463379,1.970574975013733,-1.2997685670852661
1660273500653044200,1.902044189453125,1.489365816116333,1.9571359157562256,-1.2735012769699097
1660273500655044000,1.904044189453125,1.42094886302948,1.9296469688415527,-1.2136365175247192
1660273500657044200,1.906044189453125,1.3561972379684448,1.8997145891189575,-1.155604362487793
1660273500659045400,1.90804541015625,1.3225996494293213,1.8838320970535278,-1.1244502067565918
1660273500661044500,1.91004443359375,1.1087968349456787,1.7329483032226562,-0.8947648406028748
1660273500663043600,1.912043701171875,1.1087968349456787,1.7329483032226562,-0.8947648406028748
1660273500665042700,1.914042724609375,1.0825295448303223,1.704237699508667,-0.8587238192558289
1660273500667041800,1.916041748046875,1.0825295448303223,1.704237699508667,-0.8587238192558289
1660273500669042000,1.9180419921875,1.0550405979156494,1.6798030138015747,-0.8239045143127441
1660273500671041800,1.920041748046875,1.0263299942016602,1.6517032384872437,-0.7878634333610535
1660273500673042000,1.9220419921875,0.9780716300010681,1.5936710834503174,-0.7194465398788452
1660273500675041800,1.924041748046875,0.930424153804779,1.5362497568130493,-0.6528622508049011
1660273500677042000,1.9260419921875,0.9084329605102539,1.5038738250732422,-0.6137668490409851
1660273500679042600,1.92804248046875,0.8681158423423767,1.4415656328201294,-0.5453499555587769
1660273500681043500,1.93004345703125,0.8296313881874084,1.3768138885498047,-0.47448956966400146
1660273500683044600,1.932044677734375,0.8131380081176758,1.3456597328186035,-0.44028112292289734
1660273500685045500,1.93404541015625,0.7813730239868164,1.2711342573165894,-0.3718642294406891
1660273500687046400,1.93604638671875,0.7532731890678406,1.2033281326293945,-0.3095559775829315
1660273500689046300,1.93804638671875,0.7410559058189392,1.1685088872909546,-0.27779096364974976
1660273500691046400,1.94004638671875,0.72028648853302,1.0921506881713867,-0.2154827117919922
1660273500693046300,1.94204638671875,0.6989061832427979,1.0139600038528442,-0.1537853181362152
1660273500695046400,1.94404638671875,0.6927975416183472,0.9779189229011536,-0.12446379661560059
1660273500697046300,1.94604638671875,0.6793584823608398,0.8997281193733215,-0.06398813426494598
1660273500699046400,1.94804638671875,0.6677520871162415,0.8258134722709656,-0.007788531947880983
1660273500701045500,1.95004541015625,0.6414848566055298,0.5209916830062866,0.20051652193069458
1660273500703044600,1.952044677734375,0.6378196477890015,0.4855615198612213,0.22372940182685852
1660273500705043700,1.954043701171875,0.6372088193893433,0.449520468711853,0.2451096773147583
1660273500707042000,1.9560419921875,0.6372088193893433,0.449520468711853,0.2451096773147583
1660273500709041400,1.95804150390625,0.6372088193893433,0.449520468711853,0.2451096773147583
1660273500711040500,1.96004052734375,0.6372088193893433,0.449520468711853,0.2451096773147583
1660273500713040400,1.962040283203125,0.6335436105728149,0.41347941756248474,0.2658790946006775
1660273500715040300,1.964040283203125,0.6256023645401001,0.3401755690574646,0.3055853247642517
1660273500717040400,1.966040283203125,0.6213263273239136,0.27175867557525635,0.3410155177116394
1660273500719039200,1.968039306640625,0.6176611185073853,0.23693935573101044,0.35750889778137207
1660273500721039000,1.9700390625,0.6146067976951599,0.17096590995788574,0.3868304193019867
1660273500723039200,1.972039306640625,0.6078872680664062,0.10621419548988342,0.4106541574001312
1660273500725039600,1.97403955078125,0.6036112308502197,0.07261660695075989,0.422871470451355
1660273500727040000,1.9760400390625,0.5981134176254272,0.012751812115311623,0.43875396251678467
1660273500729040400,1.978040283203125,0.5913938879966736,-0.044058654457330704,0.4521929919719696
1660273500731040500,1.98004052734375,0.5834526419639587,-0.07093672454357147,0.4534147381782532
1660273500733040600,1.98204052734375,0.5755113959312439,-0.12041681259870529,0.45891252160072327
1660273500735040800,1.984040771484375,0.55779629945755,-0.1711186319589615,0.4576907753944397
1660273500737041000,1.986041015625,0.549244225025177,-0.19249890744686127,0.4558582007884979
1660273500739041000,1.988041015625,0.529085636138916,-0.23709207773208618,0.4473060667514801
1660273500741038300,1.990038330078125,0.5022075772285461,-0.27313312888145447,0.4356996417045593
1660273500743038000,1.992037841796875,0.4881576895713806,-0.29023733735084534,0.4271475374698639
1660273500745038000,1.9940380859375,0.4576144218444824,-0.3226132094860077,0.41493022441864014
1660273500747038000,1.996037841796875,0.4246276915073395,-0.3513238728046417,0.3966042697429657
1660273500749038000,1.9980380859375,0.4038582742214203,-0.36476290225982666,0.38927388191223145
1660273500751038200,2.0000380859375,0.36537376046180725,-0.3879757821559906,0.3727805018424988
1660273500753038000,2.0020380859375,0.3275001347064972,-0.4093560576438904,0.3599523603916168
1660273500755038200,2.0040380859375,0.306730717420578,-0.41974079608917236,0.351400226354599
1660273500757038000,2.0060380859375,0.2664135992527008,-0.43562328815460205,0.3410155177116394
1660273500759037700,2.00803759765625,0.23525947332382202,-0.44600799679756165,0.33368512988090515
1660273500761037600,2.01003759765625,0.21693351864814758,-0.4527274966239929,0.3306308090686798
1660273500763037700,2.01203759765625,0.17783814668655396,-0.4673882722854614,0.3251330256462097
1660273500765038800,2.014038818359375,0.14668402075767517,-0.48143815994262695,0.3269656300544739
1660273500767038700,2.016038818359375,0.13202324509620667,-0.4899902939796448,0.3269656300544739
1660273500769038800,2.018038818359375,0.0996473953127861,-0.5089271068572998,0.3367394804954529
1660273500771038700,2.020038818359375,0.07154759019613266,-0.5284748077392578,0.3446807265281677
1660273500773038800,2.022038818359375,0.0593302883207798,-0.5425246953964233,0.34956762194633484
1660273500775039000,2.0240390625,0.0342848114669323,-0.567570149898529,0.36483925580978394
1660273500777038800,2.026038818359375,0.012293662875890732,-0.6011677384376526,0.37950003147125244
1660273500779039000,2.0280390625,-0.0029779679607599974,-0.6182720065116882,0.38988474011421204
1660273500781038000,2.0300380859375,-0.05245805159211159,-0.6946301460266113,0.4210388660430908
1660273500783037400,2.032037353515625,-0.05245805159211159,-0.6946301460266113,0.4210388660430908
1660273500785037300,2.034037353515625,-0.06467536091804504,-0.7123452425003052,0.42898011207580566
1660273500787037200,2.036037109375,-0.0921642929315567,-0.7477754354476929,0.44486260414123535
1660273500789037300,2.038037353515625,-0.12087496370077133,-0.7819838523864746,0.45952337980270386
1660273500791037200,2.040037109375,-0.13370312750339508,-0.7984772324562073,0.46929723024368286
1660273500793037300,2.042037353515625,-0.16424639523029327,-0.8277987837791443,0.48456886410713196
1660273500795037200,2.044037109375,-0.19478964805603027,-0.8516225218772888,0.4973970353603363
1660273500797037000,2.046037109375,-0.21494820713996887,-0.8681158423423767,0.5035057067871094
1660273500799037200,2.048037109375,-0.25221097469329834,-0.8858309388160706,0.5096143484115601
1660273500801038000,2.0500380859375,-0.29802587628364563,-0.9029352068901062,0.5120577812194824
1660273500803038200,2.0520380859375,-0.3242930769920349,-0.9084329605102539,0.5126686692237854
1660273500805038000,2.0540380859375,-0.37682750821113586,-0.9212611317634583,0.5108360648155212
1660273500807038200,2.0560380859375,-0.4366922974586487,-0.9261480569839478,0.5028948187828064
1660273500809038000,2.0580380859375,-0.4751768112182617,-0.9249263405799866,0.4973970353603363
1660273500811038200,2.0600380859375,-0.54359370470047,-0.9194285273551941,0.4833471179008484
1660273500813038300,2.062038330078125,-0.6242279410362244,-0.9090438485145569,0.4668537676334381
1660273500815038200,2.0640380859375,-0.6694319248199463,-0.9017134308815002,0.4583016633987427
1660273500817038000,2.0660380859375,-0.7580074071884155,-0.8827766180038452,0.4375322461128235
1660273500819038500,2.06803857421875,-0.856967568397522,-0.862618088722229,0.41859540343284607
1660273500821037600,2.07003759765625,-1.1886674165725708,-0.7630470395088196,0.37339138984680176
1660273500823036700,2.07203662109375,-1.2485321760177612,-0.739223301410675,0.36850446462631226
1660273500825034800,2.07403466796875,-1.2485321760177612,-0.739223301410675,0.36850446462631226
1660273500827033900,2.076033935546875,-1.2485321760177612,-0.739223301410675,0.36850446462631226
1660273500829034000,2.078033935546875,-1.3102295398712158,-0.7166212797164917,0.3666718602180481
1660273500831033900,2.080033935546875,-1.4287374019622803,-0.6653085947036743,0.36422839760780334
1660273500833034000,2.082033935546875,-1.4898239374160767,-0.6378196477890015,0.3654501438140869
1660273500835033900,2.084033935546875,-1.617494821548462,-0.5828418135643005,0.37400224804878235
1660273500837034000,2.086033935546875,-1.740889549255371,-0.5284748077392578,0.38988474011421204
1660273500839033900,2.088033935546875,-1.8025870323181152,-0.4991532564163208,0.39904773235321045
1660273500841034800,2.09003466796875,-1.9253709316253662,-0.4429536461830139,0.4222606122493744
1660273500843036000,2.092035888671875,-2.039602756500244,-0.39041924476623535,0.45402559638023376
1660273500845035800,2.094035888671875,-2.097634792327881,-0.36415204405784607,0.46990808844566345
1660273500847036000,2.096035888671875,-2.209423303604126,-0.3177262842655182,0.5059491395950317
1660273500849036000,2.0980361328125,-2.3151028156280518,-0.2761874496936798,0.5529857873916626
1660273500851036000,2.100035888671875,-2.365804672241211,-0.2560288906097412,0.5780312418937683
1660273500853036000,2.1020361328125,-2.4623215198516846,-0.21876612305641174,0.6269004344940186
1660273500855036000,2.104035888671875,-2.5515077114105225,-0.1863902509212494,0.6794348955154419
1660273500857036000,2.1060361328125,-2.5936574935913086,-0.17417295277118683,0.7099781036376953
1660273500859036200,2.1080361328125,-2.675513505935669,-0.15462526679039001,0.7680103182792664
1660273500861035300,2.11003515625,-2.896646738052368,-0.1460731476545334,0.9787588119506836
1660273500863034400,2.112034423828125,-2.896646738052368,-0.1460731476545334,0.9787588119506836
1660273500865033500,2.114033447265625,-2.896646738052368,-0.1460731476545334,0.9787588119506836
1660273500867032600,2.116032470703125,-2.9198594093322754,-0.1558469980955124,1.0129673480987549
1660273500869032400,2.118032470703125,-2.9198594093322754,-0.1558469980955124,1.0129673480987549
1660273500871032600,2.120032470703125,-2.960176706314087,-0.1705077588558197,1.0740537643432617
1660273500873032400,2.122032470703125,-2.996217727661133,-0.19433151185512543,1.1406381130218506
1660273500875032300,2.1240322265625,-3.010878324508667,-0.21021400392055511,1.1730140447616577
1660273500877032700,2.12603271484375,-3.035313129425049,-0.24442245066165924,1.2438743114471436
1660273500879032600,2.128032470703125,-3.0518064498901367,-0.28718301653862,1.3116804361343384
1660273500881034000,2.130033935546875,-3.058526039123535,-0.3122285008430481,1.3464996814727783
1660273500883035000,2.132034912109375,-3.0621910095214844,-0.36476290225982666,1.4185818433761597
1660273500885035800,2.134035888671875,-3.061580181121826,-0.4234059751033783,1.487609624862671
1660273500887037000,2.136036865234375,-3.058526039123535,-0.45639270544052124,1.5230398178100586
1660273500889036800,2.138036865234375,-3.046919584274292,-0.5266422033309937,1.5945110321044922
1660273500891037000,2.140036865234375,-3.0316479206085205,-0.6048329472541809,1.6604844331741333
1660273500893036800,2.142036865234375,-3.018819570541382,-0.6445391774177551,1.6934711933135986
1660273500895036700,2.14403662109375,-2.9931633472442627,-0.7325037717819214,1.7588337659835815
1660273500897036800,2.146036865234375,-2.9626200199127197,-0.824133574962616,1.8241963386535645
1660273500899036700,2.14803662109375,-2.94368314743042,-0.8699484467506409,1.8541287183761597
1660273500901036000,2.1500361328125,-2.756147623062134,-1.3152692317962646,2.1088595390319824
1660273500903034600,2.15203466796875,-2.756147623062134,-1.3152692317962646,2.1088595390319824
1660273500905034000,2.154033935546875,-2.7329347133636475,-1.3647493124008179,2.1308507919311523
1660273500907033000,2.156033203125,-2.7329347133636475,-1.3647493124008179,2.1308507919311523
1660273500909032000,2.158031982421875,-2.709721803665161,-1.4111751317977905,2.152841806411743
1660273500911031000,2.160031005859375,-2.709721803665161,-1.4111751317977905,2.152841806411743
1660273500913031200,2.16203125,-2.6858980655670166,-1.4624876976013184,2.174833059310913
1660273500915031000,2.164031005859375,-2.6431374549865723,-1.5522849559783936,2.2096524238586426
1660273500917031200,2.16603125,-2.6211464405059814,-1.5962672233581543,2.227367401123047
1660273500919031000,2.168031005859375,-2.580829381942749,-1.6848427057266235,2.25791072845459
1660273500921031000,2.170031005859375,-2.541123151779175,-1.7624225616455078,2.277458429336548
1660273500923031000,2.172031005859375,-2.522186279296875,-1.8027397394180298,2.2853996753692627
1660273500925031000,2.174031005859375,-2.48919939994812,-1.869323968887329,2.2957842350006104
1660273500927031300,2.17603125,-2.4739279747009277,-1.9004781246185303,2.2982277870178223
1660273500929031700,2.17803173828125,-2.4458281993865967,-1.9615646600723267,2.2982277870178223
1660273500931031800,2.18003173828125,-2.4238369464874268,-2.013488292694092,2.2902865409851074
1660273500933032000,2.182031982421875,-2.4152848720550537,-2.0403661727905273,2.2878429889678955
1660273500935032000,2.184031982421875,-2.401845693588257,-2.0831267833709717,2.272571325302124
1660273500937032200,2.1860322265625,-2.3926827907562256,-2.1167244911193848,2.2481367588043213
1660273500939032300,2.1880322265625,-2.3920719623565674,-2.1307742595672607,2.2340869903564453
1660273500941030000,2.19002978515625,-2.3951263427734375,-2.1631500720977783,2.1839959621429443
1660273500943030800,2.19203076171875,-2.396958827972412,-2.1686480045318604,2.1644482612609863
1660273500945030700,2.19403076171875,-2.4061217308044434,-2.175367593765259,2.143678903579712
1660273500947030800,2.19603076171875,-2.418339252471924,-2.17842173576355,2.0972530841827393
1660273500949030700,2.19803076171875,-2.4433846473693848,-2.1741456985473633,2.0416643619537354
1660273500951030800,2.20003076171875,-2.452547550201416,-2.1655936241149902,2.012342929840088
1660273500953030700,2.20203076171875,-2.4788148403167725,-2.144824266433716,1.952478051185608
1660273500955030800,2.20403076171875,-2.5118014812469482,-2.117335319519043,1.8901697397232056
1660273500957030700,2.20603076171875,-2.5270731449127197,-2.1014528274536133,1.8553504943847656
1660273500959030800,2.20803076171875,-2.567390203475952,-2.061135768890381,1.7875443696975708
1660273500961030700,2.21003076171875,-2.60892915725708,-2.0177643299102783,1.7185167074203491
1660273500963030800,2.21203076171875,-2.6327528953552246,-1.99210786819458,1.6812539100646973
1660273500965031000,2.214031005859375,-2.6822328567504883,-1.938962697982788,1.6097826957702637
1660273500967030800,2.21603076171875,-2.7384326457977295,-1.8760435581207275,1.53525710105896
1660273500969031000,2.218031005859375,-2.7659213542938232,-1.841224193572998,1.4998269081115723
1660273500971031000,2.220031005859375,-2.8227319717407227,-1.7666985988616943,1.4283556938171387
1660273500973031000,2.222031005859375,-2.8813750743865967,-1.6878970861434937,1.353830099105835
1660273500975031000,2.224031005859375,-2.910696506500244,-1.650023341178894,1.3183999061584473
1660273500977031000,2.226031005859375,-2.9681179523468018,-1.5693892240524292,1.2469286918640137
1660273500979031000,2.228031005859375,-3.0292043685913086,-1.4924201965332031,1.1797335147857666
1660273500981030100,2.230030029296875,-3.150766611099243,-1.337260365486145,1.0514518022537231
1660273500983029200,2.232029296875,-3.150766611099243,-1.337260365486145,1.0514518022537231
1660273500985029400,2.234029296875,-3.180698871612549,-1.300608515739441,1.023352026939392
1660273500987029500,2.236029541015625,-3.2069661617279053,-1.2609021663665771,0.9921978712081909
1660273500989029400,2.238029296875,-3.2662200927734375,-1.1882092952728271,0.9384417533874512
1660273500991029000,2.240029052734375,-3.323030471801758,-1.1142945289611816,0.8920159935951233
1660273500993028900,2.24202880859375,-3.351130485534668,-1.078864336013794,0.8669704794883728
1660273500995029000,2.244029052734375,-3.4030539989471436,-1.0086148977279663,0.8260425329208374
1660273500997028900,2.24602880859375,-3.4555883407592773,-0.9414197206497192,0.7875580191612244
1660273500999029000,2.248029052734375,-3.4806337356567383,-0.9102655649185181,0.7704538106918335
1660273501001029400,2.250029296875,-3.5258378982543945,-0.8449029922485352,0.7380779385566711
1660273501003029000,2.252029052734375,-3.572263479232788,-0.7874816656112671,0.7105889916419983
1660273501005029000,2.254029052734375,-3.591811180114746,-0.7599927186965942,0.6965391039848328
1660273501007029000,2.256029052734375,-3.635793685913086,-0.7068474292755127,0.6733261942863464
1660273501009029000,2.258029052734375,-3.678554058074951,-0.6561456322669983,0.6507241725921631
1660273501011029200,2.260029296875,-3.6962692737579346,-0.6347653269767761,0.6433938145637512
1660273501013029000,2.262029052734375,-3.735975503921509,-0.5907830595970154,0.6269004344940186
1660273501015029200,2.264029296875,-3.772627353668213,-0.5516876578330994,0.612850546836853
1660273501017029400,2.266029296875,-3.789731740951538,-0.5327508449554443,0.6055201888084412
1660273501019029200,2.268029296875,-3.822718381881714,-0.4948772192001343,0.5951354503631592
1660273501021028400,2.2700283203125,-3.9283981323242188,-0.40019309520721436,0.5835290551185608
1660273501023027500,2.27202734375,-3.9283981323242188,-0.40019309520721436,0.5835290551185608
1660273501025026600,2.274026611328125,-3.9283981323242188,-0.40019309520721436,0.5835290551185608
1660273501027025700,2.276025634765625,-3.9283981323242188,-0.40019309520721436,0.5835290551185608
1660273501029025500,2.278025634765625,-3.9418370723724365,-0.3885866403579712,0.5859724879264832
1660273501031025700,2.280025634765625,-3.9674932956695557,-0.368428111076355,0.5865833759307861
1660273501033025500,2.282025634765625,-3.990095376968384,-0.3482695519924164,0.5902485251426697
1660273501035025700,2.284025634765625,-4.005367279052734,-0.3372739851474762,0.5926920175552368
1660273501037025500,2.286025634765625,-4.02613639831543,-0.32016974687576294,0.593913733959198
1660273501039025700,2.288025634765625,-4.047516822814941,-0.30428725481033325,0.5988006591796875
1660273501041026600,2.290026611328125,-4.057290554046631,-0.2981785833835602,0.5994115471839905
1660273501043027500,2.29202734375,-4.0731730461120605,-0.2816852331161499,0.603076696395874
1660273501045027300,2.29402734375,-4.092720985412598,-0.26946792006492615,0.6055201888084412
1660273501047027200,2.296027099609375,-4.1006622314453125,-0.2621375620365143,0.6073527932167053
1660273501049027000,2.298027099609375,-4.116544723510742,-0.24992024898529053,0.612850546836853
1660273501051027500,2.30002734375,-4.1287617683410645,-0.23281601071357727,0.6177374720573425
1660273501053027300,2.30202734375,-4.136092185974121,-0.2267073690891266,0.6195700764656067
1660273501055027500,2.30402734375,-4.146476745605469,-0.21326832473278046,0.622624397277832
1660273501057027300,2.30602734375,-4.156861782073975,-0.20227275788784027,0.6287330389022827
1660273501059027500,2.30802734375,-4.159915924072266,-0.19433151185512543,0.6293439269065857
1660273501061026800,2.31002685546875,-4.180074691772461,-0.14851661026477814,0.6513350605964661
1660273501063026000,2.31202587890625,-4.180074691772461,-0.14851661026477814,0.6513350605964661
1660273501065025000,2.31402490234375,-4.180074691772461,-0.14851661026477814,0.6513350605964661
1660273501067024400,2.3160244140625,-4.180074691772461,-0.14851661026477814,0.6513350605964661
1660273501069024300,2.318024169921875,-4.181296348571777,-0.144851416349411,0.6531676650047302
1660273501071024000,2.320024169921875,-4.181296348571777,-0.13813190162181854,0.6580545902252197
1660273501073024300,2.322024169921875,-4.185572147369385,-0.1295797973871231,0.6623306274414062
1660273501075024100,2.324024169921875,-4.18373966217041,-0.12163854390382767,0.6666067242622375
1660273501077024000,2.32602392578125,-4.182518005371094,-0.11919508129358292,0.6708827614784241
1660273501079024000,2.328024169921875,-4.183128833770752,-0.11125383526086807,0.6751587986946106
1660273501081025000,2.33002490234375,-4.180685520172119,-0.10209085047245026,0.6818783283233643
1660273501083026000,2.33202587890625,-4.178241729736328,-0.0996473953127861,0.6861543655395508
1660273501085026800,2.33402685546875,-4.174576759338379,-0.09353873878717422,0.6934847831726074
1660273501087028000,2.336028076171875,-4.168467998504639,-0.08926268666982651,0.6989825367927551
1660273501089028000,2.338028076171875,-4.166635513305664,-0.084375761449337,0.7002043128013611
1660273501091027700,2.34002783203125,-4.159305095672607,-0.0794888436794281,0.7063129544258118
1660273501093027600,2.342027587890625,-4.151363849639893,-0.07154759019613266,0.7099781036376953
1660273501095027700,2.34402783203125,-4.1458659172058105,-0.07032585889101028,0.7136433124542236
1660273501097027800,2.34602783203125,-4.134870529174805,-0.061162881553173065,0.716697633266449
1660273501099027700,2.34802783203125,-4.122042179107666,-0.05322163552045822,0.7234171628952026
1660273501101026800,2.35002685546875,-4.058512210845947,-0.00618501054123044,0.736245334148407
1660273501103026000,2.35202587890625,-4.049960136413574,-0.0006872233934700489,0.7386888265609741
1660273501105025000,2.35402490234375,-4.03835391998291,0.0029779679607599974,0.7411322593688965
1660273501107024400,2.3560244140625,-4.03835391998291,0.0029779679607599974,0.7411322593688965
1660273501109023700,2.358023681640625,-4.03835391998291,0.0029779679607599974,0.7411322593688965
1660273501111022800,2.36002294921875,-4.03835391998291,0.0029779679607599974,0.7411322593688965
1660273501113023000,2.36202294921875,-4.026747226715088,0.009086620062589645,0.7399105429649353
1660273501115022800,2.36402294921875,-4.008421421051025,0.020082194358110428,0.7392996549606323
1660273501117023000,2.36602294921875,-3.9888737201690674,0.03107776865363121,0.7380779385566711
1660273501119022800,2.36802294921875,-3.976656436920166,0.03474296256899834,0.7380779385566711
1660273501121023000,2.37002294921875,-3.9509999752044678,0.04634939879179001,0.7350236177444458
1660273501123031000,2.372031005859375,-3.9277870655059814,0.05429064854979515,0.7313584089279175
1660273501125031000,2.374031005859375,-3.91556978225708,0.059177570044994354,0.7283040881156921
1660273501127031000,2.376031005859375,-3.8880808353424072,0.06589708477258682,0.7191411256790161
1660273501129031000,2.378031005859375,-3.8587594032287598,0.07322747260332108,0.7148650288581848
1660273501131030800,2.38003076171875,-3.8447093963623047,0.07750352472066879,0.7118107080459595
1660273501133030700,2.38203076171875,-3.814777135848999,0.07994698733091354,0.7044803500175476
1660273501135030500,2.384030517578125,-3.783622980117798,0.08361218124628067,0.6922630667686462
1660273501137030000,2.38602978515625,-3.7659077644348145,0.08483391255140305,0.6873761415481567
1660273501139029800,2.38802978515625,-3.733531951904297,0.08910996466875076,0.6745479702949524
1660273501141027000,2.390027099609375,-3.686495304107666,0.08972083032131195,0.6586654782295227
1660273501143027000,2.39202685546875,-3.686495304107666,0.08972083032131195,0.6586654782295227
1660273501145027000,2.394027099609375,-3.6541194915771484,0.09094256162643433,0.6440047025680542
1660273501147027000,2.39602685546875,-3.6205220222473145,0.0872773751616478,0.632398247718811
1660273501149027600,2.398027587890625,-3.605861186981201,0.08788824081420898,0.622013509273529
1660273501151027500,2.40002734375,-3.5679874420166016,0.08788824081420898,0.6073527932167053
1660273501153027600,2.402027587890625,-3.536222457885742,0.08422304689884186,0.5908594131469727
1660273501155027200,2.404027099609375,-3.5178966522216797,0.08116871863603592,0.5835290551185608
1660273501157027000,2.406027099609375,-3.482466459274292,0.07994698733091354,0.5682573914527893
1660273501159027000,2.40802685546875,-3.448868751525879,0.07628180086612701,0.5487096905708313
1660273501161027000,2.410027099609375,-3.432375431060791,0.07261660695075989,0.5413793325424194
1660273501163027000,2.41202685546875,-3.401832103729248,0.06895141303539276,0.5267185568809509
1660273501165027000,2.414027099609375,-3.367623805999756,0.06467536091804504,0.5126686692237854
1660273501167027500,2.41602734375,-3.3499085903167725,0.06101016700267792,0.5053382515907288
1660273501169027300,2.41802734375,-3.3224196434020996,0.056123245507478714,0.4943426847457886
1660273501171027200,2.420027099609375,-3.2888221740722656,0.055512379854917526,0.4833471179008484
1660273501173027300,2.42202734375,-3.2753829956054688,0.05245805159211159,0.4766276180744171
1660273501175027200,2.424027099609375,-3.243007183074951,0.047571130096912384,0.46441030502319336
1660273501177027300,2.42602734375,-3.209409713745117,0.046960264444351196,0.45402559638023376
1660273501179027500,2.42802734375,-3.191694498062134,0.04329507425427437,0.44974952936172485
1660273501181026600,2.430026611328125,-3.128164529800415,0.035964690148830414,0.43508878350257874
1660273501183025400,2.432025390625,-3.128164529800415,0.035964690148830414,0.43508878350257874
1660273501185025500,2.434025634765625,-3.1098384857177734,0.035964690148830414,0.432645320892334
1660273501187025400,2.436025390625,-3.075019359588623,0.03352123126387596,0.4277583956718445
1660273501189024800,2.438024658203125,-3.0432543754577637,0.03413209691643715,0.4277583956718445
1660273501191024400,2.4400244140625,-3.0255391597747803,0.0316886343061924,0.4271475374698639
1660273501193024500,2.4420244140625,-2.9925525188446045,0.02863430790603161,0.42348232865333557
1660273501195024100,2.444024169921875,-2.960787534713745,0.030466904863715172,0.42470407485961914
1660273501197024300,2.446024169921875,-2.9442942142486572,0.030466904863715172,0.4265366494655609
1660273501199024400,2.4480244140625,-2.9094748497009277,0.02802344225347042,0.4259257912635803
1660273501201025300,2.450025390625,-2.879542350769043,0.02191479131579399,0.4277583956718445
1660273501203025000,2.45202490234375,-2.862438201904297,0.01947133056819439,0.4277583956718445
1660273501205025000,2.45402490234375,-2.8306732177734375,0.015195272862911224,0.4308127164840698
1660273501207025200,2.456025146484375,-2.7976865768432617,0.007864889688789845,0.432645320892334
1660273501209024800,2.458024658203125,-2.7836365699768066,0.002367102773860097,0.432034432888031
1660273501211025000,2.46002490234375,-2.7463738918304443,-0.0031306843739002943,0.4308127164840698
1660273501213024800,2.462024658203125,-2.7133870124816895,-0.009239336475729942,0.42898011207580566
1660273501215025200,2.464025146484375,-2.6968936920166016,-0.010461067780852318,0.42898011207580566
1660273501217025000,2.46602490234375,-2.6626851558685303,-0.020845776423811913,0.4216497242450714
1660273501219025000,2.46802490234375,-2.622368097305298,-0.026343563571572304,0.41920626163482666
1660273501221024000,2.47002392578125,-2.483090877532959,-0.05383250117301941,0.3959933817386627
1660273501223023000,2.472023193359375,-2.483090877532959,-0.05383250117301941,0.3959933817386627
1660273501225022200,2.474022216796875,-2.483090877532959,-0.05383250117301941,0.3959933817386627
1660273501227021000,2.47602099609375,-2.483090877532959,-0.05383250117301941,0.3959933817386627
1660273501229021200,2.478021240234375,-2.4617106914520264,-0.055054228752851486,0.38866302371025085
1660273501231021000,2.48002099609375,-2.418950080871582,-0.061162881553173065,0.3825543522834778
1660273501233020700,2.482020751953125,-2.3951263427734375,-0.06666067242622375,0.37888917326927185
1660273501235020500,2.4840205078125,-2.3505330085754395,-0.07582364976406097,0.36911532282829285
1660273501237020700,2.486020751953125,-2.3028855323791504,-0.08681922405958176,0.35445454716682434
1660273501239021300,2.488021240234375,-2.279672622680664,-0.09109527617692947,0.34834590554237366
1660273501241022200,2.490022216796875,-2.2308034896850586,-0.10209085047245026,0.33796119689941406
1660273501243023000,2.492023193359375,-2.178879976272583,-0.11430815607309341,0.3269656300544739
1660273501245023000,2.49402294921875,-2.1544454097747803,-0.1198059469461441,0.31780263781547546
1660273501247023000,2.496023193359375,-2.0970239639282227,-0.13202324509620667,0.30314189195632935
1660273501249023700,2.498023681640625,-2.039602756500244,-0.14729487895965576,0.289702832698822
1660273501251024100,2.500024169921875,-2.0096702575683594,-0.15157094597816467,0.280539870262146
1660273501253024000,2.50202392578125,-1.9504163265228271,-0.16745343804359436,0.26710084080696106
1660273501255024400,2.5040244140625,-1.892994999885559,-0.17905987799167633,0.25182920694351196
1660273501257024500,2.5060244140625,-1.8593974113464355,-0.18700112402439117,0.24388794600963593
1660273501259024400,2.5080244140625,-1.796478271484375,-0.20410534739494324,0.22800545394420624
1660273501261023500,2.5100234375,-1.5741233825683594,-0.2651918828487396,0.17791450023651123
1660273501263022800,2.51202294921875,-1.5741233825683594,-0.2651918828487396,0.17791450023651123
1660273501265022000,2.51402197265625,-1.5741233825683594,-0.2651918828487396,0.17791450023651123
1660273501267021000,2.51602099609375,-1.5386931896209717,-0.27374398708343506,0.1693623960018158
1660273501269021000,2.51802099609375,-1.5386931896209717,-0.27374398708343506,0.1693623960018158
1660273501271020800,2.520020751953125,-1.475163221359253,-0.29390254616737366,0.15775595605373383
1660273501273021000,2.52202099609375,-1.408578872680664,-0.3122285008430481,0.14309518039226532
1660273501275020800,2.524020751953125,-1.3749812841415405,-0.3213914632797241,0.13576480746269226
1660273501277021000,2.52602099609375,-1.3102295398712158,-0.33483052253723145,0.1241583600640297
1660273501279021000,2.52802099609375,-1.2460887432098389,-0.3513238728046417,0.11071932315826416
1660273501281021700,2.530021728515625,-1.2137129306793213,-0.3562107980251312,0.10399980843067169
1660273501283022600,2.532022705078125,-1.1477394104003906,-0.37087157368659973,0.09178250283002853
1660273501285023500,2.5340234375,-1.0835986137390137,-0.3818671405315399,0.07773260027170181
1660273501287024400,2.5360244140625,-1.0536662340164185,-0.3879757821559906,0.07223481684923172
1660273501289023500,2.5380234375,-0.9938014149665833,-0.40080395340919495,0.06185010448098183
1660273501291023000,2.540023193359375,-0.9308822751045227,-0.40508002042770386,0.04963280260562897
1660273501293023500,2.5420234375,-0.8997281193733215,-0.40996694564819336,0.041691552847623825
1660273501295022600,2.544022705078125,-0.8355873227119446,-0.4172973334789276,0.029474247246980667
1660273501297022700,2.546022705078125,-0.7738898992538452,-0.4185190498828888,0.016035212203860283
1660273501299021800,2.548021728515625,-0.7415140271186829,-0.4191299080848694,0.006872233934700489
1660273501301021000,2.55002099609375,-0.4415792226791382,-0.39103010296821594,-0.0731511116027832
1660273501303020000,2.55202001953125,-0.4067598879337311,-0.38553231954574585,-0.08475755155086517
1660273501305019100,2.55401904296875,-0.4067598879337311,-0.38553231954574585,-0.08475755155086517
1660273501307018200,2.556018310546875,-0.37194058299064636,-0.3739258944988251,-0.10002918541431427
1660273501309017900,2.558017822265625,-0.37194058299064636,-0.3739258944988251,-0.10002918541431427
1660273501311017000,2.560016845703125,-0.37194058299064636,-0.3739258944988251,-0.10002918541431427
1660273501313017000,2.56201708984375,-0.33162346482276917,-0.36598464846611023,-0.10980302840471268
1660273501315017000,2.564016845703125,-0.258930504322052,-0.34399348497390747,-0.14095716178417206
1660273501317017000,2.56601708984375,-0.22044599056243896,-0.3323870599269867,-0.15683965384960175
1660273501319017000,2.568016845703125,-0.13859005272388458,-0.30856332182884216,-0.19043724238872528
