time,seconds_elapsed,z,y,x
1660273498914403300,0.1634033203125,0.6017022728919983,-0.5815436840057373,0.988379955291748
1660273498916403200,0.1654033203125,0.6096435189247131,-0.5913175344467163,0.9388998746871948
1660273498918403300,0.1674033203125,0.6163630485534668,-0.6102544069290161,0.8381071090698242
1660273498920388000,0.16938818359375,0.6163630485534668,-0.6218608021736145,0.7385360598564148
1660273498922388200,0.17138818359375,0.6145304441452026,-0.6261368989944458,0.6914994716644287
1660273498924387800,0.173387939453125,0.6059783101081848,-0.6340781450271606,0.5968153476715088
1660273498926387700,0.1753876953125,0.5931501388549805,-0.637132465839386,0.5082398653030396
1660273498928387300,0.17738720703125,0.5907067060470581,-0.6395758986473083,0.4642575979232788
1660273498930387200,0.17938720703125,0.5839871764183044,-0.6401867866516113,0.38240164518356323
1660273498932385800,0.1813857421875,0.5821545720100403,-0.6389650702476501,0.3066543638706207
1660273498934385700,0.1833857421875,0.5858197808265686,-0.6340781450271606,0.2724458873271942
1660273498936385500,0.185385498046875,0.5949827432632446,-0.6236934065818787,0.2015855312347412
1660273498938382800,0.1873828125,0.6212499737739563,-0.5974262356758118,0.1111774742603302
1660273498940382700,0.1893828125,0.6212499737739563,-0.5974262356758118,0.1111774742603302
1660273498942382800,0.1913828125,0.645684540271759,-0.5736024379730225,0.05803219974040985
1660273498944382700,0.1933828125,0.6713408827781677,-0.5455026626586914,0.006719517521560192
1660273498946382800,0.1953828125,0.6860016584396362,-0.5314527750015259,-0.01710422709584236
1660273498948383200,0.19738330078125,0.7098253965377808,-0.5002986192703247,-0.06230825558304787
1660273498950383000,0.199383056640625,0.7367035150527954,-0.46181413531303406,-0.10201449692249298
1660273498952383200,0.20138330078125,0.7458664774894714,-0.44715335965156555,-0.12217304855585098
1660273498954383000,0.203383056640625,0.7654141783714294,-0.4141666293144226,-0.1569923609495163
1660273498956383200,0.20538330078125,0.7806857824325562,-0.384845107793808,-0.18509216606616974
1660273498958383000,0.207383056640625,0.7855727076530457,-0.37140607833862305,-0.20097467303276062
1660273498960383000,0.209383056640625,0.788627028465271,-0.34697145223617554,-0.22602014243602753
1660273498962383000,0.211383056640625,0.7855727076530457,-0.3225368559360504,-0.25106561183929443
1660273498964383000,0.213383056640625,0.7837401032447815,-0.313373863697052,-0.2626720666885376
1660273498966382800,0.2153828125,0.7764097452163696,-0.29077184200286865,-0.28527405858039856
1660273498968383000,0.217383056640625,0.759916365146637,-0.27061331272125244,-0.3023782968521118
1660273498970382800,0.2193828125,0.7507534027099609,-0.26022860407829285,-0.30970868468284607
1660273498972382700,0.2213828125,0.7281513810157776,-0.24617868661880493,-0.3280346393585205
1660273498974382800,0.2233828125,0.7031059265136719,-0.23335053026676178,-0.342695415019989
1660273498976382700,0.2253828125,0.6878342628479004,-0.23090706765651703,-0.35124751925468445
1660273498978381800,0.2273818359375,0.6243042945861816,-0.2174680233001709,-0.3830125033855438
1660273498980381400,0.22938134765625,0.6243042945861816,-0.2174680233001709,-0.3830125033855438
1660273498982381300,0.23138134765625,0.6059783101081848,-0.21807889640331268,-0.3897320330142975
1660273498984381400,0.23338134765625,0.5742133259773254,-0.2174680233001709,-0.4001167416572571
1660273498986381600,0.235381591796875,0.5418374538421631,-0.21868975460529327,-0.413555771112442
1660273498988381400,0.23738134765625,0.5271766781806946,-0.22296582162380219,-0.42210787534713745
1660273498990381600,0.239381591796875,0.4990769028663635,-0.23151792585849762,-0.4337143301963806
1660273498992382000,0.2413818359375,0.4715879559516907,-0.24068090319633484,-0.44654250144958496
1660273498994381800,0.2433818359375,0.4593706727027893,-0.24617868661880493,-0.45265114307403564
1660273498996382000,0.2453818359375,0.4398229718208313,-0.26083946228027344,-0.4648684561252594
1660273498998382800,0.2473828125,0.4190535545349121,-0.2816088795661926,-0.47769662737846375
1660273499000383000,0.249383056640625,0.4080579876899719,-0.2974913716316223,-0.48197266459465027
1660273499002382800,0.2513828125,0.3891211748123169,-0.32620203495025635,-0.4917465150356293
1660273499004382700,0.2533828125,0.36713001132011414,-0.3597996234893799,-0.49235737323760986
1660273499006382800,0.2553828125,0.35674530267715454,-0.3781255781650543,-0.4911356568336487
1660273499008382200,0.25738232421875,0.3396410644054413,-0.423329621553421,-0.4807509481906891
1660273499010382000,0.259382080078125,0.3182607889175415,-0.47708576917648315,-0.4648684561252594
1660273499012382200,0.26138232421875,0.3090978264808655,-0.5106833577156067,-0.4502076804637909
1660273499014382000,0.263382080078125,0.29626965522766113,-0.5913175344467163,-0.42088615894317627
1660273499016382000,0.2653818359375,0.28038713335990906,-0.6963863968849182,-0.3836233615875244
1660273499018381300,0.26738134765625,0.21319197118282318,-1.2565498352050781,-0.2028072625398636
1660273499020380400,0.26938037109375,0.21319197118282318,-1.2565498352050781,-0.2028072625398636
1660273499022379500,0.271379638671875,0.21319197118282318,-1.2565498352050781,-0.2028072625398636
1660273499024378600,0.273378662109375,0.21319197118282318,-1.2565498352050781,-0.2028072625398636
1660273499026378800,0.275378662109375,0.2015855312347412,-1.3646728992462158,-0.16859880089759827
1660273499028379600,0.277379638671875,0.1814269721508026,-1.5913039445877075,-0.09834930300712585
1660273499030379800,0.2793798828125,0.17104226350784302,-1.7165313959121704,-0.05803219974040985
1660273499032379600,0.281379638671875,0.15271630883216858,-1.9834794998168945,0.028099801391363144
1660273499034379800,0.2833798828125,0.14477506279945374,-2.266921043395996,0.11911872029304504
1660273499036379600,0.285379638671875,0.13561208546161652,-2.4159719944000244,0.16737708449363708
1660273499038380500,0.287380615234375,0.13011430203914642,-2.721404552459717,0.26511552929878235
1660273499040381400,0.28938134765625,0.13988813757896423,-3.0335566997528076,0.3646865487098694
1660273499042381600,0.291381591796875,0.14477506279945374,-3.192992687225342,0.4129449129104614
1660273499044381400,0.29338134765625,0.16798794269561768,-3.509420871734619,0.5100724697113037
1660273499046381300,0.29538134765625,0.2076941877603531,-3.8203511238098145,0.5998696684837341
1660273499048381400,0.29738134765625,0.23090706765651703,-3.9767327308654785,0.6450737118721008
1660273499050381300,0.29938134765625,0.27977627515792847,-4.280332565307617,0.7312057018280029
1660273499052381200,0.301381103515625,0.33719760179519653,-4.56621789932251,0.807563841342926
1660273499054381300,0.30338134765625,0.36713001132011414,-4.70182991027832,0.8472700715065002
1660273499056381200,0.305381103515625,0.42638394236564636,-4.958393096923828,0.9224064946174622
1660273499058380300,0.30738037109375,0.6640105247497559,-5.6767706871032715,1.1508700847625732
1660273499060379400,0.30937939453125,0.6640105247497559,-5.7604594230651855,1.1508700847625732
1660273499062378800,0.311378662109375,0.6957755088806152,-5.7604594230651855,1.176526427268982
1660273499064377900,0.3133779296875,0.6957755088806152,-5.7604594230651855,1.176526427268982
1660273499066378000,0.3153779296875,0.6957755088806152,-5.7604594230651855,1.176526427268982
1660273499068378000,0.317378173828125,0.7623597979545593,-5.924781799316406,1.2211196422576904
1660273499070378200,0.319378173828125,0.8295549750328064,-6.06833553314209,1.2498302459716797
1660273499072378400,0.32137841796875,0.8619308471679688,-6.137973785400391,1.2589932680130005
1660273499074378200,0.323378173828125,0.9321803450584412,-6.258314609527588,1.2699888944625854
1660273499076378400,0.32537841796875,1.0018190145492554,-6.360939979553223,1.2663236856460571
1660273499078378800,0.327378662109375,1.034194827079773,-6.404311180114746,1.2620476484298706
1660273499080379600,0.329379638671875,1.1044443845748901,-6.470284461975098,1.2406673431396484
1660273499082380500,0.331380615234375,1.1673635244369507,-6.500827789306641,1.208902359008789
1660273499084381400,0.33338134765625,1.2003501653671265,-6.491664886474609,1.1899654865264893
1660273499086381300,0.33538134765625,1.2626584768295288,-6.426302433013916,1.1465940475463867
1660273499088380400,0.33738037109375,1.3237450122833252,-6.322455406188965,1.0885618925094604
1660273499090380300,0.33938037109375,1.356731653213501,-6.266866683959961,1.0482447147369385
1660273499092380400,0.34138037109375,1.4196507930755615,-6.144693374633789,0.950506329536438
1660273499094380300,0.34338037109375,1.4886785745620728,-6.02435302734375,0.8252789378166199
1660273499096380400,0.34538037109375,1.522887110710144,-5.965099334716797,0.7519751191139221
1660273499098379500,0.347379638671875,1.7708983421325684,-5.271156311035156,0.04886921867728233
1660273499100378600,0.349378662109375,1.777006983757019,-5.180747985839844,-0.019547687843441963
1660273499102378000,0.3513779296875,1.777006983757019,-5.180747985839844,-0.019547687843441963
1660273499104377000,0.353377197265625,1.786780834197998,-5.086063861846924,-0.0806342139840126
1660273499106376200,0.355376220703125,1.786780834197998,-5.086063861846924,-0.0806342139840126
1660273499108375300,0.357375244140625,1.786780834197998,-5.086063861846924,-0.0806342139840126
1660273499110375400,0.35937548828125,1.788002610206604,-4.9987101554870605,-0.1368338167667389
1660273499112375300,0.361375244140625,1.7825047969818115,-4.824613571166992,-0.24007004499435425
1660273499114375400,0.36337548828125,1.7800613641738892,-4.740925312042236,-0.2828305959701538
1660273499116376000,0.3653759765625,1.7727309465408325,-4.58881950378418,-0.34758231043815613
1660273499118356000,0.36735595703125,1.768454909324646,-4.441601276397705,-0.3878994286060333
1660273499120356000,0.369356201171875,1.7660114765167236,-4.374405860900879,-0.40133845806121826
1660273499122356000,0.37135595703125,1.7654005289077759,-4.246735095977783,-0.4098905920982361
1660273499124356000,0.373356201171875,1.7696765661239624,-4.130059719085693,-0.403781920671463
1660273499126356000,0.37535595703125,1.7715091705322266,-4.072027683258057,-0.3933972120285034
1660273499128353500,0.377353515625,1.7861700057983398,-3.9632937908172607,-0.37568211555480957
1660273499130353700,0.379353759765625,1.8014415502548218,-3.8563923835754395,-0.3488040566444397
1660273499132353500,0.381353515625,1.8099937438964844,-3.8056905269622803,-0.33292156457901
1660273499134353700,0.383353759765625,1.8283196687698364,-3.7091736793518066,-0.30115658044815063
1660273499136353500,0.385353515625,1.8490891456604004,-3.6187658309936523,-0.2681698501110077
1660273499138351000,0.38735107421875,1.8735237121582031,-3.5411858558654785,-0.23884831368923187
1660273499140351000,0.38935107421875,1.8875735998153687,-3.506366491317749,-0.22663100063800812
1660273499142351000,0.39135107421875,1.9126191139221191,-3.441614866256714,-0.20463985204696655
1660273499144351200,0.393351318359375,1.9266690015792847,-3.411071538925171,-0.19425514340400696
1660273499146351400,0.395351318359375,1.9559905529022217,-3.355482816696167,-0.1765400618314743
1660273499148351200,0.397351318359375,1.9853121042251587,-3.302337408065796,-0.16249015927314758
1660273499150351400,0.399351318359375,2.001194477081299,-3.274848461151123,-0.15943582355976105
1660273499152351500,0.4013515625,2.0390682220458984,-3.2284228801727295,-0.1514945775270462
1660273499154351600,0.4033515625,2.079385280609131,-3.1844406127929688,-0.152105450630188
1660273499156351500,0.4053515625,2.0971004962921143,-3.166114568710327,-0.15271630883216858
1660273499158351600,0.4073515625,2.1429152488708496,-3.131906032562256,-0.1618792861700058
1660273499160351500,0.4093515625,2.1868975162506104,-3.103806257247925,-0.1765400618314743
1660273499162351600,0.4113515625,2.211332082748413,-3.093421697616577,-0.18387043476104736
1660273499164351500,0.4133515625,2.2571470737457275,-3.0757064819335938,-0.20036379992961884
1660273499166351600,0.4153515625,2.3066272735595703,-3.0689868927001953,-0.22113321721553802
1660273499168351500,0.4173515625,2.3328943252563477,-3.068376064300537,-0.23029619455337524
1660273499170351600,0.4193515625,2.3829853534698486,-3.0689868927001953,-0.24862214922904968
1660273499172351500,0.4213515625,2.431243658065796,-3.0775392055511475,-0.2669481039047241
1660273499174351600,0.4233515625,2.4587326049804688,-3.0836477279663086,-0.2791654169559479
1660273499176351700,0.425351806640625,2.5192081928253174,-3.1031954288482666,-0.2968805134296417
1660273499178350800,0.427350830078125,2.64138126373291,-3.1477885246276855,-0.34208452701568604
1660273499180350000,0.429349853515625,2.64138126373291,-3.1477885246276855,-0.34208452701568604
1660273499182350000,0.43135009765625,2.6731462478637695,-3.160616874694824,-0.3543018400669098
1660273499184350000,0.433349853515625,2.7372870445251465,-3.1862730979919434,-0.38179078698158264
1660273499186350000,0.43535009765625,2.772106409072876,-3.199101209640503,-0.3952298164367676
1660273499188350500,0.4373505859375,2.8411343097686768,-3.2198708057403564,-0.42577308416366577
1660273499190350600,0.4393505859375,2.9107728004455566,-3.2369749546051025,-0.45631635189056396
1660273499192350500,0.4413505859375,2.94742488861084,-3.243694543838501,-0.4740314185619354
1660273499194350600,0.4433505859375,3.0225613117218018,-3.249192237854004,-0.5106833577156067
1660273499196350500,0.4453505859375,3.107471466064453,-3.2565226554870605,-0.5522221922874451
1660273499198351400,0.447351318359375,3.152064561843872,-3.258355140686035,-0.5748242139816284
1660273499200351200,0.449351318359375,3.243694543838501,-3.260798692703247,-0.6206390857696533
1660273499202351400,0.451351318359375,3.341432809829712,-3.260187864303589,-0.6737843751907349
1660273499204351200,0.453351318359375,3.389080286026001,-3.2589659690856934,-0.7006624341011047
1660273499206351400,0.455351318359375,3.4910948276519775,-3.2528574466705322,-0.7568620443344116
1660273499208351500,0.4573515625,3.5949418544769287,-3.2449162006378174,-0.8161159753799438
1660273499210351600,0.4593515625,3.648698091506958,-3.2400293350219727,-0.8472700715065002
1660273499212351500,0.4613515625,3.754988670349121,-3.2253684997558594,-0.9108000993728638
1660273499214351400,0.463351318359375,3.866776943206787,-3.201544761657715,-0.9737191796302795
1660273499216351500,0.4653515625,3.9235875606536865,-3.1887166500091553,-1.007927656173706
1660273499218350600,0.4673505859375,4.312097549438477,-3.050661087036133,-1.2327260971069336
1660273499220349700,0.469349609375,4.312097549438477,-3.050661087036133,-1.2327260971069336
1660273499222348800,0.471348876953125,4.312097549438477,-3.050661087036133,-1.2327260971069336
1660273499224348000,0.473347900390625,4.312097549438477,-3.050661087036133,-1.2327260971069336
1660273499226347500,0.475347412109375,4.365242958068848,-3.0213394165039062,-1.2638801336288452
1660273499228348200,0.47734814453125,4.460537910461426,-2.9602530002593994,-1.318858027458191
1660273499230348300,0.479348388671875,4.548502445220947,-2.8930578231811523,-1.3744467496871948
1660273499232348400,0.481348388671875,4.589430809020996,-2.8564059734344482,-1.398881435394287
1660273499234348300,0.483348388671875,4.664566993713379,-2.7788259983062744,-1.4508049488067627
1660273499236348200,0.48534814453125,4.73359489440918,-2.6951375007629395,-1.4996742010116577
1660273499238349000,0.48734912109375,4.764749050140381,-2.6028966903686523,-1.522887110710144
1660273499240350000,0.489349853515625,4.824613571166992,-2.5521950721740723,-1.5711454153060913
1660273499242349800,0.491349853515625,4.879591464996338,-2.4446825981140137,-1.6181820631027222
1660273499244350000,0.493349853515625,4.90708065032959,-2.3848178386688232,-1.643227458000183
1660273499246349800,0.495349853515625,4.952284336090088,-2.269364356994629,-1.6927075386047363
1660273499248349700,0.497349609375,4.996877670288086,-2.152078151702881,-1.7360789775848389
1660273499250349800,0.499349853515625,5.013370990753174,-2.0897700786590576,-1.7611244916915894
1660273499252349700,0.501349609375,5.050023078918457,-1.966986060142517,-1.8118263483047485
1660273499254349800,0.503349853515625,5.077511787414551,-1.8289304971694946,-1.863139033317566
1660273499256349700,0.505349609375,5.087896823883057,-1.7568484544754028,-1.8875735998153687
1660273499258349000,0.50734912109375,5.1324896812438965,-1.0592403411865234,-2.069000482559204
1660273499260348200,0.50934814453125,5.1324896812438965,-1.0592403411865234,-2.069000482559204
1660273499262347300,0.51134716796875,5.1379876136779785,-0.9847147464752197,-2.0873265266418457
1660273499264346400,0.513346435546875,5.1379876136779785,-0.9847147464752197,-2.0873265266418457
1660273499266345500,0.515345458984375,5.1410417556762695,-0.9108000993728638,-2.101376533508301
1660273499268344300,0.51734423828125,5.1410417556762695,-0.9108000993728638,-2.101376533508301
1660273499270344400,0.519344482421875,5.144096374511719,-0.836885392665863,-2.1172590255737305
1660273499272344300,0.52134423828125,5.148372173309326,-0.6951646208763123,-2.144136905670166
1660273499274344000,0.523343994140625,5.149593830108643,-0.6261368989944458,-2.155743360519409
1660273499276344000,0.525343994140625,5.150204658508301,-0.4899139404296875,-2.1783454418182373
1660273499278344200,0.52734423828125,5.152037620544434,-0.36713001132011414,-2.1960606575012207
1660273499280344000,0.529343994140625,5.151426792144775,-0.30543261766433716,-2.2040019035339355
1660273499282344000,0.531343994140625,5.149593830108643,-0.19364428520202637,-2.2149972915649414
1660273499284343800,0.53334375,5.148983001708984,-0.08979719132184982,-2.2266037464141846
1660273499286343400,0.535343505859375,5.148983001708984,-0.04337143152952194,-2.230879783630371
1660273499288343300,0.53734326171875,5.14715051651001,0.04214970022439957,-2.233934164047241
1660273499290343200,0.53934326171875,5.149593830108643,0.1160643994808197,-2.2369885444641113
1660273499292343000,0.541343017578125,5.151426792144775,0.14905111491680145,-2.2375993728637695
1660273499294343000,0.543343017578125,5.159978866577148,0.2064724564552307,-2.238821029663086
1660273499296342800,0.5453427734375,5.172195911407471,0.24495697021484375,-2.2375993728637695
1660273499298340000,0.547340087890625,5.24794340133667,0.3090978264808655,-2.213775634765625
1660273499300337700,0.549337646484375,5.260160446166992,0.304210901260376,-2.2094995975494385
1660273499302335500,0.55133544921875,5.270545482635498,0.2974913716316223,-2.2046127319335938
1660273499304333600,0.55333349609375,5.270545482635498,0.2974913716316223,-2.2046127319335938
1660273499306331600,0.55533154296875,5.270545482635498,0.2974913716316223,-2.2046127319335938
1660273499308330000,0.557330078125,5.270545482635498,0.2974913716316223,-2.2046127319335938
1660273499310330000,0.559330078125,5.283984184265137,0.28588494658470154,-2.1985039710998535
1660273499312330000,0.561330078125,5.310251712799072,0.2590068578720093,-2.1899518966674805
1660273499314330000,0.563330078125,5.337129592895508,0.21991148591041565,-2.177123785018921
1660273499316330000,0.565330078125,5.354844570159912,0.20036379992961884,-2.171625852584839
1660273499318330000,0.567330078125,5.382333755493164,0.15271630883216858,-2.1600193977355957
1660273499320330000,0.569330078125,5.414098739624023,0.10323622822761536,-2.1478021144866943
1660273499322330000,0.571330078125,5.429370403289795,0.07513642311096191,-2.141082763671875
1660273499324330000,0.573330078125,5.457469940185547,0.019547687843441963,-2.1264219284057617
1660273499326330000,0.575330078125,5.486180782318115,-0.036041051149368286,-2.1087067127227783
1660273499328330000,0.577330078125,5.499009132385254,-0.06414084881544113,-2.101987361907959
1660273499330334000,0.579333984375,5.52222204208374,-0.12278391420841217,-2.083050489425659
1660273499332333800,0.581333740234375,5.542380332946777,-0.18325957655906677,-2.0647244453430176
1660273499334334000,0.583333984375,5.552154064178467,-0.21380282938480377,-2.052507162094116
1660273499336336100,0.585336181640625,5.567425727844238,-0.27122417092323303,-2.0311269760131836
1660273499338333400,0.58733349609375,5.584529876708984,-0.34636059403419495,-2.0030272006988525
1660273499340333600,0.58933349609375,5.584529876708984,-0.34636059403419495,-2.0030272006988525
1660273499342333400,0.59133349609375,5.591860294342041,-0.39645153284072876,-1.9828685522079468
1660273499344333600,0.59333349609375,5.59491491317749,-0.43799036741256714,-1.9645426273345947
1660273499346333400,0.59533349609375,5.5985798835754395,-0.45875978469848633,-1.9541579484939575
1660273499348333600,0.59733349609375,5.599801540374756,-0.4905247986316681,-1.938886284828186
1660273499350333700,0.599333740234375,5.599801540374756,-0.5216789245605469,-1.919338583946228
1660273499352333800,0.601333740234375,5.599190711975098,-0.5363397002220154,-1.910786509513855
1660273499354333700,0.603333740234375,5.593081951141357,-0.5571091175079346,-1.891238808631897
1660273499356333800,0.605333740234375,5.585752010345459,-0.5723807215690613,-1.8741345405578613
1660273499358334000,0.607333984375,5.582086563110352,-0.5797111392021179,-1.8625280857086182
1660273499360333800,0.609333740234375,5.568647384643555,-0.5870414972305298,-1.8399261236190796
1660273499362333400,0.61133349609375,5.551543235778809,-0.5937610268592834,-1.817324161529541
1660273499364333600,0.61333349609375,5.5429911613464355,-0.5925393104553223,-1.80510675907135
1660273499366333400,0.61533349609375,5.519167423248291,-0.5931501388549805,-1.777006983757019
1660273499368333600,0.61733349609375,5.487402439117432,-0.5955936312675476,-1.7409659624099731
1660273499370333400,0.61933349609375,5.470909118652344,-0.5937610268592834,-1.7263051271438599
1660273499372333600,0.62133349609375,5.431813716888428,-0.5925393104553223,-1.690264105796814
1660273499374333400,0.62333349609375,5.385998725891113,-0.5894849896430969,-1.6548339128494263
1660273499376333600,0.62533349609375,5.359120845794678,-0.5827654600143433,-1.6377297639846802
1660273499378332700,0.627332763671875,5.247332572937012,-0.5632177591323853,-1.570534586906433
1660273499380331800,0.629331787109375,5.247332572937012,-0.5632177591323853,-1.570534586906433
1660273499382332000,0.631331787109375,5.213735103607178,-0.5552765130996704,-1.5522085428237915
1660273499384331800,0.633331787109375,5.148372173309326,-0.5363397002220154,-1.522887110710144
1660273499386332000,0.635331787109375,5.077511787414551,-0.5119050741195679,-1.4978415966033936
1660273499388332000,0.63733203125,5.042081832885742,-0.5009095072746277,-1.4850133657455444
1660273499390331600,0.63933154296875,4.968166828155518,-0.4746423065662384,-1.4611896276474
1660273499392331500,0.64133154296875,4.891808986663818,-0.4489859640598297,-1.4367550611495972
1660273499394331600,0.64333154296875,4.8502702713012695,-0.4343251883983612,-1.4257594347000122
1660273499396331000,0.6453310546875,4.769024848937988,-0.4080579876899719,-1.4025466442108154
1660273499398332000,0.647331787109375,4.687169075012207,-0.38117989897727966,-1.380555510520935
1660273499400331800,0.649331787109375,4.646241188049316,-0.3677408695220947,-1.367727279663086
1660273499402332000,0.651331787109375,4.561330795288086,-0.3396410644054413,-1.3420709371566772
1660273499404331800,0.653331787109375,4.4764204025268555,-0.3127630054950714,-1.3139711618423462
1660273499406332000,0.655331787109375,4.432438373565674,-0.29504790902137756,-1.3017538785934448
1660273499408332500,0.65733251953125,4.343862533569336,-0.2638937830924988,-1.274264931678772
1660273499410332700,0.659332763671875,4.251011371612549,-0.22357667982578278,-1.2424999475479126
1660273499412332500,0.66133251953125,4.202753067016602,-0.2064724564552307,-1.2278391122817993
1660273499414332400,0.66333251953125,4.1025710105896,-0.16737708449363708,-1.1954632997512817
1660273499416332500,0.66533251953125,4.0017781257629395,-0.13072516024112701,-1.1643091440200806
1660273499418331600,0.66733154296875,3.6328155994415283,-0.02932153269648552,-1.0659598112106323
1660273499420330800,0.669330810546875,3.6328155994415283,-0.02932153269648552,-1.0659598112106323
1660273499422330000,0.671330078125,3.6328155994415283,-0.02932153269648552,-1.0659598112106323
1660273499424329200,0.6733291015625,3.6328155994415283,-0.02932153269648552,-1.0659598112106323
1660273499426329300,0.675329345703125,3.579059362411499,-0.01771509274840355,-1.0531316995620728
1660273499428329000,0.677328857421875,3.4770450592041016,0.0012217304902151227,-1.0286970138549805
1660273499430329000,0.6793291015625,3.4208452701568604,0.01038470957428217,-1.014647126197815
1660273499432329200,0.6813291015625,3.3237178325653076,0.02687807008624077,-0.988990843296051
1660273499434329000,0.6833291015625,3.224757671356201,0.04764748737215996,-0.9657779335975647
1660273499436329200,0.6853291015625,3.1801645755767822,0.05925392732024193,-0.949895441532135
1660273499438330000,0.687330078125,3.089756488800049,0.08185594528913498,-0.9279043078422546
1660273499440330800,0.689330810546875,3.006678819656372,0.1062905490398407,-0.9034696817398071
1660273499442331000,0.691330810546875,2.967583417892456,0.11911872029304504,-0.8869763612747192
1660273499444330800,0.693330810546875,2.892446994781494,0.14294247329235077,-0.8649851679801941
1660273499446331000,0.695330810546875,2.8240299224853516,0.1716531366109848,-0.8393288254737854
1660273499448330800,0.697330810546875,2.791654109954834,0.18387043476104736,-0.8246681094169617
1660273499450330400,0.699330322265625,2.729956865310669,0.21441370248794556,-0.8038986921310425
1660273499452330200,0.701330322265625,2.6792550086975098,0.24617868661880493,-0.7825183868408203
1660273499454330400,0.703330322265625,2.6529877185821533,0.26022860407829285,-0.7727445363998413
1660273499456330200,0.705330322265625,2.6114490032196045,0.28649580478668213,-0.7574729323387146
1660273499458329600,0.70732958984375,2.4966063499450684,0.38179078698158264,-0.7043276429176331
1660273499460328700,0.70932861328125,2.4966063499450684,0.38179078698158264,-0.7043276429176331
1660273499462327800,0.711327880859375,2.4862215518951416,0.3933972120285034,-0.6988298296928406
1660273499464327000,0.713326904296875,2.4782803058624268,0.40622538328170776,-0.6914994716644287
1660273499466326000,0.715325927734375,2.4782803058624268,0.40622538328170776,-0.6914994716644287
1660273499468324400,0.717324462890625,2.4782803058624268,0.40622538328170776,-0.6914994716644287
1660273499470324500,0.719324462890625,2.4630086421966553,0.4300491213798523,-0.6835582256317139
1660273499472324000,0.721323974609375,2.456289052963257,0.44226643443107605,-0.6762278079986572
1660273499474324200,0.72332421875,2.4446825981140137,0.4703662395477295,-0.6682865619659424
1660273499476324000,0.725323974609375,2.436741352081299,0.4990769028663635,-0.665232241153717
1660273499478325000,0.727324951171875,2.431243658065796,0.513126790523529,-0.6572909951210022
1660273499480326000,0.729325927734375,2.4245240688323975,0.5491678714752197,-0.6579018831253052
1660273499482326800,0.731326904296875,2.4165828227996826,0.5876523852348328,-0.6548475623130798
1660273499484327400,0.733327392578125,2.412306785583496,0.6065891981124878,-0.6548475623130798
1660273499486327600,0.73532763671875,2.4043655395507812,0.6481280326843262,-0.6542366743087769
1660273499488327700,0.73732763671875,2.3994786739349365,0.6951646208763123,-0.6572909951210022
1660273499490327300,0.739327392578125,2.3939809799194336,0.7153232097625732,-0.6585127115249634
1660273499492327400,0.741327392578125,2.389704942703247,0.7586946487426758,-0.6646214127540588
1660273499494327300,0.743327392578125,2.3848178386688232,0.8038986921310425,-0.6725626587867737
1660273499496327200,0.7453271484375,2.3829853534698486,0.8246681094169617,-0.6762278079986572
1660273499498326300,0.747326171875,2.3719897270202637,1.0030407905578613,-0.7195992469787598
1660273499500325400,0.749325439453125,2.372600555419922,1.0201449394226074,-0.7244861721992493
1660273499502324700,0.75132470703125,2.372600555419922,1.0201449394226074,-0.7244861721992493
1660273499504323800,0.75332373046875,2.3719897270202637,1.036027431488037,-0.7318165898323059
1660273499506323000,0.755322998046875,2.3719897270202637,1.036027431488037,-0.7318165898323059
1660273499508322300,0.757322265625,2.3719897270202637,1.036027431488037,-0.7318165898323059
1660273499510322200,0.759322265625,2.3719897270202637,1.053742527961731,-0.7373143434524536
1660273499512322300,0.761322265625,2.37321138381958,1.081842303276062,-0.7531968355178833
1660273499514322400,0.763322509765625,2.3744332790374756,1.1020009517669678,-0.7611380815505981
1660273499516322300,0.765322265625,2.3689353466033936,1.1343767642974854,-0.7745771408081055
1660273499518321400,0.7673212890625,2.3664920330047607,1.1655309200286865,-0.7898487448692322
1660273499520321300,0.7693212890625,2.364048480987549,1.1808024644851685,-0.799011766910553
1660273499522321400,0.7713212890625,2.359161615371704,1.2082914113998413,-0.8161159753799438
1660273499524321300,0.7733212890625,2.347555160522461,1.2321151494979858,-0.8350527882575989
1660273499526321400,0.7753212890625,2.3463335037231445,1.2431107759475708,-0.8442157506942749
1660273499528321300,0.7773212890625,2.3273966312408447,1.2596040964126587,-0.8594874143600464
1660273499530321400,0.7793212890625,2.3066272735595703,1.2724323272705078,-0.8790351152420044
1660273499532321300,0.7813212890625,2.2968533039093018,1.2803735733032227,-0.8875871896743774
1660273499534321400,0.7833212890625,2.2730295658111572,1.2889256477355957,-0.9046914577484131
1660273499536321500,0.785321533203125,2.246762275695801,1.2944234609603882,-0.9224064946174622
1660273499538319000,0.787319091796875,2.2211060523986816,1.299310326576233,-0.9358455538749695
1660273499540318500,0.789318359375,2.2064452171325684,1.3017538785934448,-0.9450085163116455
1660273499542319400,0.7913193359375,2.1789562702178955,1.3005321025848389,-0.959669291973114
1660273499544319200,0.7933193359375,2.160630464553833,1.2980886697769165,-0.9669997096061707
1660273499546319400,0.7953193359375,2.132530689239502,1.2968668937683105,-0.9841039180755615
1660273499548319500,0.797319580078125,2.102598190307617,1.289536476135254,-0.998153805732727
1660273499550319400,0.7993193359375,2.0873265266418457,1.2877039909362793,-1.004873275756836
1660273499552319500,0.801319580078125,2.054950714111328,1.2754865884780884,-1.0195341110229492
1660273499554319400,0.8033193359375,2.021353006362915,1.2657127380371094,-1.0317513942718506
1660273499556319500,0.805319580078125,2.0054705142974854,1.2559388875961304,-1.037249207496643
1660273499558319400,0.8073193359375,1.9718730449676514,1.2394455671310425,-1.0519099235534668
1660273499560319500,0.809319580078125,1.9370536804199219,1.214400053024292,-1.0629055500030518
1660273499562319400,0.8113193359375,1.9217820167541504,1.2027937173843384,-1.06657075881958
1660273499564319500,0.813319580078125,1.8906279802322388,1.1759155988693237,-1.0781772136688232
1660273499566319400,0.8153193359375,1.8564194440841675,1.150259256362915,-1.0879509449005127
1660273499568319500,0.817319580078125,1.8417587280273438,1.1368201971054077,-1.0903944969177246
1660273499570319400,0.8193193359375,1.813048005104065,1.1105530261993408,-1.1001683473587036
1660273499572319500,0.821319580078125,1.7849482297897339,1.083064079284668,-1.1044443845748901
1660273499574319400,0.8233193359375,1.7702875137329102,1.0684033632278442,-1.1068878173828125
1660273499576319500,0.825319580078125,1.7452419996261597,1.043968677520752,-1.1099421977996826
1660273499578318600,0.827318603515625,1.6988162994384766,0.9914342761039734,-1.1074986457824707
1660273499580317700,0.829317626953125,1.6988162994384766,0.9914342761039734,-1.1074986457824707
1660273499582317800,0.83131787109375,1.6878206729888916,0.978606104850769,-1.1056660413742065
1660273499584318000,0.83331787109375,1.6664403676986694,0.9517280459403992,-1.0983357429504395
1660273499586317800,0.83531787109375,1.6566665172576904,0.9364564418792725,-1.094059705734253
1660273499588318000,0.83731787109375,1.6365079879760742,0.9065240025520325,-1.0836749076843262
1660273499590317800,0.83931787109375,1.613295078277588,0.8710938692092896,-1.0659598112106323
1660273499592318000,0.84131787109375,1.6029103994369507,0.8558222055435181,-1.0574077367782593
1660273499594318000,0.843318115234375,1.5815300941467285,0.8185594081878662,-1.0390818119049072
1660273499596318000,0.84531787109375,1.55892813205719,0.7764097452163696,-1.0195341110229492
1660273499598318800,0.84731884765625,1.5528194904327393,0.7580837607383728,-1.0073168277740479
1660273499600319000,0.849319091796875,1.5308283567428589,0.7134906053543091,-0.9834930300712585
1660273499602318600,0.851318603515625,1.5106697082519531,0.6609562039375305,-0.9578366875648499
1660273499604318700,0.853318603515625,1.49906325340271,0.637132465839386,-0.9437867999076843
1660273499606318600,0.855318603515625,1.4795156717300415,0.5894849896430969,-0.912021815776825
1660273499608318500,0.857318359375,1.4611896276474,0.5357288122177124,-0.8820894360542297
1660273499610318600,0.859318603515625,1.4501941204071045,0.5106833577156067,-0.8649851679801941
1660273499612318700,0.861318603515625,1.4300355911254883,0.46792277693748474,-0.8319984674453735
1660273499614318600,0.863318603515625,1.4049900770187378,0.423329621553421,-0.7965682744979858
1660273499616318700,0.865318603515625,1.3946053981781006,0.40194934606552124,-0.7782423496246338
1660273499618317800,0.86731787109375,1.3066407442092896,0.3017674386501312,-0.6432411074638367
1660273499620317000,0.86931689453125,1.3066407442092896,0.3017674386501312,-0.6432411074638367
1660273499622316000,0.87131591796875,1.3066407442092896,0.3017674386501312,-0.6432411074638367
1660273499624315400,0.8733154296875,1.2950342893600464,0.2938261926174164,-0.6249151229858398
1660273499626315300,0.875315185546875,1.2779301404953003,0.28466320037841797,-0.6065891981124878
1660273499628315400,0.8773154296875,1.2651019096374512,0.2767219543457031,-0.5858197808265686
1660273499630315300,0.879315185546875,1.2357803583145142,0.26022860407829285,-0.5497786998748779
1660273499632315400,0.8813154296875,1.2009611129760742,0.24923302233219147,-0.513126790523529
1660273499634315300,0.883315185546875,1.1838568449020386,0.2431243658065796,-0.4948008358478546
1660273499636315400,0.8853154296875,1.147204875946045,0.23151792585849762,-0.45814892649650574
1660273499638316300,0.88731640625,1.1105530261993408,0.22357667982578278,-0.42210787534713745
1660273499640317200,0.889317138671875,1.091616153717041,0.2174680233001709,-0.40683624148368835
1660273499642317000,0.891317138671875,1.0531316995620728,0.2070833146572113,-0.37262779474258423
1660273499644317400,0.8933173828125,1.0128145217895508,0.20341812074184418,-0.33658674359321594
1660273499649107500,0.898107421875,0.9914342761039734,0.19914206862449646,-0.3188716471195221
1660273499651107600,0.900107666015625,0.9523389339447021,0.1966986060142517,-0.28649580478668213
1660273499653107500,0.902107421875,0.9138544201850891,0.19792033731937408,-0.251676470041275
1660273499655107600,0.904107666015625,0.8906415104866028,0.19486601650714874,-0.23640485107898712
1660273499657107500,0.906107421875,0.8521569967269897,0.20097467303276062,-0.2021963894367218
1660273499659107300,0.908107421875,0.8130616545677185,0.20341812074184418,-0.16737708449363708
1660273499661106700,0.910106689453125,0.6640105247497559,0.2278527319431305,-0.028099801391363144
1660273499663105800,0.912105712890625,0.6444628238677979,0.22907446324825287,-0.00855211354792118
1660273499665105000,0.91410498046875,0.6255260109901428,0.23518311977386475,0.00733038317412138
1660273499667104000,0.91610400390625,0.6255260109901428,0.23518311977386475,0.00733038317412138
1660273499669103000,0.91810302734375,0.6255260109901428,0.23518311977386475,0.00733038317412138
1660273499671102500,0.9201025390625,0.6255260109901428,0.23518311977386475,0.00733038317412138
1660273499673102600,0.9221025390625,0.6096435189247131,0.2370157092809677,0.024434609338641167
1660273499675102700,0.924102783203125,0.5778785347938538,0.24007004499435425,0.056810468435287476
1660273499677102600,0.9261025390625,0.543059229850769,0.2431243658065796,0.09224065393209457
1660273499679102500,0.9281025390625,0.5253441333770752,0.24007004499435425,0.10934487730264664
1660273499681102600,0.9301025390625,0.4917465150356293,0.23579397797584534,0.14477506279945374
1660273499683102500,0.9321025390625,0.455705463886261,0.22113321721553802,0.17776179313659668
1660273499685102600,0.9341025390625,0.43615779280662537,0.21563543379306793,0.19303341209888458
1660273499687102500,0.9361025390625,0.39645153284072876,0.20402899384498596,0.22540926933288574
1660273499689102600,0.9381025390625,0.35674530267715454,0.1966986060142517,0.2565633952617645
1660273499691102500,0.9401025390625,0.33292156457901,0.18936823308467865,0.2736676335334778
1660273499693102600,0.9421025390625,0.28955012559890747,0.17776179313659668,0.2993239760398865
1660273499695103000,0.94410302734375,0.242513507604599,0.1661553531885147,0.3237585723400116
1660273499697103000,0.94610302734375,0.21991148591041565,0.16249015927314758,0.3335324227809906
1660273499699103000,0.94810302734375,0.16859880089759827,0.14905111491680145,0.3579670190811157
1660273499701100500,0.9501005859375,-0.06963863968849182,0.12095131725072861,0.42638394236564636
1660273499703098400,0.952098388671875,-0.10018189996480942,0.11911872029304504,0.4306600093841553
1660273499705096200,0.95409619140625,-0.13439035415649414,0.11667526513338089,0.43676865100860596
1660273499707094300,0.95609423828125,-0.13439035415649414,0.11667526513338089,0.43676865100860596
1660273499709092400,0.95809228515625,-0.13439035415649414,0.11667526513338089,0.43676865100860596
1660273499711090700,0.960090576171875,-0.13439035415649414,0.11667526513338089,0.43676865100860596
1660273499713090600,0.962090576171875,-0.1973094791173935,0.1160643994808197,0.4544837474822998
1660273499715090700,0.964090576171875,-0.22968533635139465,0.11239920556545258,0.4642575979232788
1660273499717090600,0.966090576171875,-0.2926044464111328,0.11239920556545258,0.4856378734111786
1660273499719090700,0.968090576171875,-0.35063666105270386,0.1062905490398407,0.5082398653030396
1660273499721090600,0.970090576171875,-0.3744603991508484,0.10934487730264664,0.5192354321479797
1660273499723090700,0.972090576171875,-0.423329621553421,0.09834930300712585,0.5516113042831421
1660273499725090600,0.974090576171875,-0.4648684561252594,0.08857546001672745,0.5894849896430969
1660273499727090700,0.976090576171875,-0.4862487316131592,0.08124507963657379,0.6102544069290161
1660273499729090600,0.978090576171875,-0.5186246037483215,0.06841690838336945,0.6524040699005127
1660273499731090700,0.980090576171875,-0.5442809462547302,0.051312681287527084,0.7024950385093689
1660273499733091600,0.982091552734375,-0.5583308339118958,0.04092797264456749,0.7287622094154358
1660273499735091500,0.984091552734375,-0.5778785347938538,0.014049900695681572,0.7843509912490845
1660273499737091600,0.986091552734375,-0.5943718552589417,-0.02015855349600315,0.8399397134780884
1660273499739091700,0.988091796875,-0.6023131608963013,-0.039706241339445114,0.8710938692092896
1660273499741089000,0.990089111328125,-0.6249151229858398,-0.11178833991289139,0.9645562171936035
1660273499743091000,0.992091064453125,-0.6304129362106323,-0.13744467496871948,1.0005972385406494
1660273499745091000,0.994091064453125,-0.6359107494354248,-0.16920967400074005,1.0311405658721924
1660273499747091200,0.99609130859375,-0.6432411074638367,-0.23457226157188416,1.1001683473587036
1660273499749091300,0.99809130859375,-0.6536257863044739,-0.304210901260376,1.1630873680114746
1660273499751091000,1.000091064453125,-0.6603453159332275,-0.3445279896259308,1.1948524713516235
1660273499753090300,1.00209033203125,-0.6737843751907349,-0.42577308416366577,1.2565498352050781
1660273499755090400,1.00409033203125,-0.6890559792518616,-0.5064072608947754,1.3158037662506104
1660273499757090300,1.00609033203125,-0.7000515460968018,-0.5485569834709167,1.3457361459732056
1660273499759090400,1.00809033203125,-0.7263187766075134,-0.6291912198066711,1.4013248682022095
1660273499761090300,1.01009033203125,-0.7617489695549011,-0.7067710757255554,1.4520267248153687
1660273499763090400,1.01209033203125,-0.7837401032447815,-0.7434229850769043,1.474017858505249
1660273499765090300,1.01409033203125,-0.8362745046615601,-0.8118399381637573,1.5161675214767456
1660273499767091000,1.016091064453125,-0.8973610401153564,-0.8704829812049866,1.5552629232406616
1660273499769091000,1.018091064453125,-0.9334021210670471,-0.901637077331543,1.5717562437057495
1660273499771091000,1.020091064453125,-1.0128145217895508,-0.9535606503486633,1.5998560190200806
1660273499773091000,1.022091064453125,-1.0989465713500977,-0.9938777685165405,1.6218472719192505
1660273499775091200,1.02409130859375,-1.1441506147384644,-1.0109820365905762,1.6303993463516235
1660273499777091000,1.026091064453125,-1.244943380355835,-1.0311405658721924,1.6377297639846802
1660273499779091200,1.02809130859375,-1.2980886697769165,-1.0403034687042236,1.643227458000183
1660273499781090600,1.030090576171875,-1.5864170789718628,-1.0170906782150269,1.6365079879760742
1660273499783089700,1.032089599609375,-1.5864170789718628,-1.0170906782150269,1.6365079879760742
1660273499785089500,1.034089599609375,-1.5864170789718628,-1.0170906782150269,1.6365079879760742
1660273499787089700,1.036089599609375,-1.711033582687378,-0.9920451641082764,1.6273449659347534
1660273499789089500,1.038089599609375,-1.8374826908111572,-0.9578366875648499,1.615127682685852
1660273499791089700,1.040089599609375,-1.9022343158721924,-0.9395107626914978,1.6114624738693237
1660273499793089500,1.042089599609375,-2.0311269760131836,-0.8961393237113953,1.5998560190200806
1660273499795089400,1.04408935546875,-2.1594085693359375,-0.8491026759147644,1.587027907371521
1660273499797089500,1.046089599609375,-2.222327709197998,-0.8222246170043945,1.580308437347412
1660273499799089400,1.04808935546875,-2.3438899517059326,-0.7733554244041443,1.5699236392974854
1660273499801090300,1.05009033203125,-2.4630086421966553,-0.7238753437995911,1.5546520948410034
1660273499803089700,1.052089599609375,-2.5192081928253174,-0.6994407176971436,1.550986886024475
1660273499805089500,1.054089599609375,-2.6248879432678223,-0.656069278717041,1.5387696027755737
1660273499807089400,1.05608935546875,-2.7256808280944824,-0.6194173693656921,1.5351043939590454
1660273499809089500,1.058089599609375,-2.775160789489746,-0.6004805564880371,1.5320500135421753
1660273499811089700,1.060089599609375,-2.866790533065796,-0.5626068711280823,1.531439185142517
1660273499813090000,1.062090087890625,-2.955976963043213,-0.5296201705932617,1.5399912595748901
1660273499815090000,1.06408984375,-2.9938504695892334,-0.513126790523529,1.5418238639831543
1660273499817090000,1.066090087890625,-3.0689868927001953,-0.4917465150356293,1.5558737516403198
1660273499819090000,1.06808984375,-3.1422908306121826,-0.4795292317867279,1.5729780197143555
1660273499821089300,1.07008935546875,-3.34204363822937,-0.5210680365562439,1.6688838005065918
1660273499823088400,1.07208837890625,-3.34204363822937,-0.5210680365562439,1.6688838005065918
1660273499825087500,1.07408740234375,-3.34204363822937,-0.5210680365562439,1.6688838005065918
1660273499827086600,1.076086669921875,-3.34204363822937,-0.5210680365562439,1.6688838005065918
1660273499829086500,1.07808642578125,-3.3646457195281982,-0.5351179838180542,1.6872098445892334
1660273499831086600,1.080086669921875,-3.405573844909668,-0.5736024379730225,1.7324138879776
1660273499833086500,1.08208642578125,-3.425732374191284,-0.5949827432632446,1.7531832456588745
1660273499835086300,1.08408642578125,-3.45871901512146,-0.6420193910598755,1.8002198934555054
1660273499837086500,1.08608642578125,-3.486207962036133,-0.6982190012931824,1.8466455936431885
1660273499839086300,1.08808642578125,-3.4990360736846924,-0.7287622094154358,1.8686367273330688
1660273499841087000,1.0900869140625,-3.525303363800049,-0.7898487448692322,1.9126191139221191
1660273499843088000,1.092087890625,-3.542407512664795,-0.8643743395805359,1.9559905529022217
1660273499845088000,1.094087890625,-3.5527923107147217,-0.8991936445236206,1.9737056493759155
1660273499847087900,1.096087890625,-3.5668420791625977,-0.9731083512306213,2.0091357231140137
1660273499849088000,1.098087890625,-3.582113742828369,-1.0512990951538086,2.0390682220458984
1660273499851087600,1.100087646484375,-3.587000608444214,-1.0885618925094604,2.0506746768951416
1660273499853087500,1.10208740234375,-3.595552921295166,-1.1643091440200806,2.0726656913757324
1660273499855087600,1.104087646484375,-3.6047158241271973,-1.23394775390625,2.085494041442871
1660273499857087700,1.106087646484375,-3.6083810329437256,-1.2675453424453735,2.0916025638580322
1660273499859087600,1.108087646484375,-3.615100622177124,-1.3335188627243042,2.0958786010742188
1660273499861087000,1.1100869140625,-3.642589569091797,-1.5027284622192383,2.0616703033447266
1660273499863086000,1.112086181640625,-3.642589569091797,-1.5027284622192383,2.0616703033447266
1660273499865085200,1.114085205078125,-3.642589569091797,-1.5027284622192383,2.0616703033447266
1660273499867084300,1.116084228515625,-3.6480872631073,-1.522887110710144,2.051896333694458
1660273499869084400,1.11808447265625,-3.6480872631073,-1.522887110710144,2.051896333694458
1660273499871084300,1.120084228515625,-3.656639337539673,-1.550986886024475,2.024407386779785
1660273499873084400,1.12208447265625,-3.6664133071899414,-1.5754214525222778,1.9895881414413452
1660273499875084300,1.124084228515625,-3.6725218296051025,-1.5839735269546509,1.9718730449676514
1660273499877084400,1.12608447265625,-3.6810739040374756,-1.5919147729873657,1.930334210395813
1660273499879084300,1.128084228515625,-3.6896259784698486,-1.587027907371521,1.8851301670074463
1660273499881085200,1.130085205078125,-3.6926803588867188,-1.5864170789718628,1.8576412200927734
1660273499883085800,1.1320859375,-3.699399948120117,-1.5668693780899048,1.807550311088562
1660273499885086700,1.134086669921875,-3.7079520225524902,-1.5436564683914185,1.7507398128509521
1660273499887087400,1.13608740234375,-3.7146716117858887,-1.5241087675094604,1.719585657119751
1660273499889087200,1.138087158203125,-3.7256672382354736,-1.4819591045379639,1.6603317260742188
1660273499891087000,1.140087158203125,-3.7391061782836914,-1.4343116283416748,1.5943583250045776
1660273499893087200,1.142087158203125,-3.7476582527160645,-1.4037683010101318,1.55892813205719
1660273499895086800,1.1440869140625,-3.7665951251983643,-1.3439035415649414,1.4941763877868652
1660273499897087000,1.1460869140625,-3.7873644828796387,-1.2773191928863525,1.4257594347000122
1660273499899086800,1.1480869140625,-3.798970937728882,-1.2412781715393066,1.387274980545044
1660273499901086200,1.150086181640625,-3.9382481575012207,-0.8655960559844971,1.0855075120925903
1660273499903085300,1.152085205078125,-3.9382481575012207,-0.8655960559844971,1.0855075120925903
1660273499905084400,1.15408447265625,-3.9596285820007324,-0.8155050873756409,1.054964303970337
1660273499907083500,1.15608349609375,-3.9773435592651367,-0.7672467231750488,1.0286970138549805
1660273499909082600,1.15808251953125,-3.9773435592651367,-0.7672467231750488,1.0286970138549805
1660273499911082200,1.160082275390625,-3.9773435592651367,-0.7672467231750488,1.0286970138549805
1660273499913082400,1.162082275390625,-3.999945640563965,-0.7147123217582703,1.0012081861495972
1660273499915082000,1.16408203125,-4.039041042327881,-0.6102544069290161,0.9535606503486633
1660273499917081900,1.166081787109375,-4.060421466827393,-0.5558874011039734,0.931569516658783
1660273499919081700,1.168081787109375,-4.108068943023682,-0.4508185386657715,0.8857545852661133
1660273499921081900,1.170081787109375,-4.1526618003845215,-0.3433062732219696,0.846659243106842
1660273499923081700,1.172081787109375,-4.173431396484375,-0.29138273000717163,0.8301658630371094
1660273499925081900,1.174081787109375,-4.220468044281006,-0.18814650177955627,0.7935139536857605
1660273499927082200,1.176082275390625,-4.26628303527832,-0.0910189226269722,0.7611380815505981
1660273499929082400,1.178082275390625,-4.287662982940674,-0.04703662544488907,0.7458664774894714
1660273499931082500,1.18008251953125,-4.333477973937988,0.0403171069920063,0.7189884185791016
1660273499933083000,1.182082763671875,-4.379903793334961,0.12217304855585098,0.6976081132888794
1660273499935083000,1.1840830078125,-4.402505874633789,0.16310101747512817,0.6878342628479004
1660273499937083100,1.186083251953125,-4.4458770751953125,0.2370157092809677,0.675006091594696
1660273499939083300,1.188083251953125,-4.4874162673950195,0.3078760802745819,0.6664539575576782
1660273499941080600,1.19008056640625,-4.527733325958252,0.3689626157283783,0.6633996367454529
1660273499943080700,1.192080810546875,-4.547891616821289,0.3995058834552765,0.6640105247497559
1660273499945080600,1.19408056640625,-4.584543704986572,0.4544837474822998,0.6701191663742065
1660273499947080700,1.196080810546875,-4.60103702545166,0.47830748558044434,0.6731734871864319
1660273499949080600,1.19808056640625,-4.634023666381836,0.5192354321479797,0.6841690540313721
1660273499951080400,1.20008056640625,-4.662734508514404,0.5546656250953674,0.6988298296928406
1660273499953080300,1.202080322265625,-4.678617000579834,0.5674937963485718,0.7110471725463867
1660273499955080400,1.20408056640625,-4.703051567077637,0.5858197808265686,0.7287622094154358
1660273499957079800,1.206079833984375,-4.726875305175781,0.598647952079773,0.7513642311096191
1660273499959079700,1.20807958984375,-4.7390923500061035,0.598647952079773,0.7648032903671265
1660273499961079800,1.210079833984375,-4.759251117706299,0.5968153476715088,0.7965682744979858
1660273499963079700,1.21207958984375,-4.777576923370361,0.5876523852348328,0.8295549750328064
1660273499965079800,1.214079833984375,-4.784907341003418,0.5809328556060791,0.846659243106842
1660273499967079700,1.21607958984375,-4.802011489868164,0.5589417219161987,0.8875871896743774
1660273499969079800,1.218079833984375,-4.813007354736328,0.5320636034011841,0.9291260242462158
1660273499971079700,1.22007958984375,-4.820948600769043,0.5174028873443604,0.9517280459403992
1660273499973079800,1.222079833984375,-4.832554817199707,0.4789183437824249,0.9993755221366882
1660273499975079400,1.224079345703125,-4.842329025268555,0.4349360466003418,1.0482447147369385
1660273499977079600,1.22607958984375,-4.8478264808654785,0.41172316670417786,1.0800096988677979
1660273499979079400,1.228079345703125,-4.85698938369751,0.3646865487098694,1.1313223838806152
1660273499981078800,1.230078857421875,-4.868596076965332,0.2590068578720093,1.2443325519561768
1660273499983078000,1.232077880859375,-4.868596076965332,0.2590068578720093,1.2443325519561768
1660273499985077800,1.234077880859375,-4.871650218963623,0.22968533635139465,1.274264931678772
1660273499987078000,1.236077880859375,-4.877758979797363,0.17348572611808777,1.3298536539077759
1660273499989077800,1.238077880859375,-4.87898063659668,0.14477506279945374,1.357953429222107
1660273499991078000,1.240077880859375,-4.884478569030762,0.08674286305904388,1.4086552858352661
1660273499993077800,1.242077880859375,-4.889365196228027,0.02321287989616394,1.4611896276474
1660273499995077600,1.24407763671875,-4.889976501464844,-0.007941247895359993,1.4868459701538086
1660273499997077800,1.246077880859375,-4.894252300262451,-0.06780604273080826,1.5332717895507812
1660273499999077600,1.24807763671875,-4.898528575897217,-0.1258382350206375,1.580308437347412
1660273500001078500,1.25007861328125,-4.899750232696533,-0.15515977144241333,1.6022995710372925
1660273500003078400,1.252078369140625,-4.902804374694824,-0.2064724564552307,1.643227458000183
1660273500005078500,1.25407861328125,-4.905858993530273,-0.2535090744495392,1.680490255355835
1660273500007078700,1.25607861328125,-4.906469821929932,-0.27611109614372253,1.6982053518295288
1660273500009078500,1.25807861328125,-4.906469821929932,-0.3127630054950714,1.728137731552124
1660273500011078700,1.26007861328125,-4.906469821929932,-0.3488040566444397,1.757459282875061
1660273500013078800,1.262078857421875,-4.90708065032959,-0.3640756905078888,1.7702875137329102
1660273500015079000,1.264078857421875,-4.906469821929932,-0.38728857040405273,1.7928894758224487
1660273500017079300,1.266079345703125,-4.903415203094482,-0.4031710624694824,1.8093829154968262
1660273500019079200,1.2680791015625,-4.902193546295166,-0.41111230850219727,1.8209892511367798
1660273500021078500,1.27007861328125,-4.889976501464844,-0.4141666293144226,1.8466455936431885
1660273500023077600,1.27207763671875,-4.889976501464844,-0.4141666293144226,1.8466455936431885
1660273500025076700,1.27407666015625,-4.889976501464844,-0.4141666293144226,1.8466455936431885
1660273500027075800,1.276075927734375,-4.889365196228027,-0.4098905920982361,1.8484781980514526
1660273500029075700,1.27807568359375,-4.888754367828369,-0.4056145250797272,1.8478673696517944
1660273500031075800,1.280075927734375,-4.8838677406311035,-0.40133845806121826,1.8503108024597168
1660273500033075700,1.28207568359375,-4.877758979797363,-0.38606682419776917,1.8411478996276855
1660273500035076000,1.284076171875,-4.866763591766357,-0.37140607833862305,1.8350391387939453
1660273500037076200,1.286076171875,-4.863708972930908,-0.36102136969566345,1.8307631015777588
1660273500039076000,1.288076171875,-4.849658966064453,-0.342695415019989,1.8197675943374634
1660273500041076500,1.290076416015625,-4.8362202644348145,-0.32681289315223694,1.806328535079956
1660273500043077400,1.292077392578125,-4.827057361602783,-0.31642818450927734,1.7983872890472412
1660273500045077200,1.2940771484375,-4.806898593902588,-0.2968805134296417,1.7788395881652832
1660273500047077400,1.296077392578125,-4.783685684204102,-0.2767219543457031,1.7592918872833252
1660273500049077200,1.2980771484375,-4.770246505737305,-0.26511552929878235,1.748907208442688
1660273500051077400,1.300077392578125,-4.740314483642578,-0.24129177629947662,1.7269160747528076
1660273500053077200,1.3020771484375,-4.706105709075928,-0.21502456068992615,1.7061465978622437
1660273500055077400,1.304077392578125,-4.688390731811523,-0.20463985204696655,1.6939293146133423
1660273500057077200,1.3060771484375,-4.650516986846924,-0.1765400618314743,1.671938180923462
1660273500059077400,1.308077392578125,-4.61081075668335,-0.14905111491680145,1.6475036144256592
1660273500061076500,1.310076416015625,-4.433049201965332,-0.05314527451992035,1.5650367736816406
1660273500063075800,1.312075927734375,-4.433049201965332,-0.05314527451992035,1.5650367736816406
1660273500065075000,1.314074951171875,-4.4092254638671875,-0.04214970022439957,1.5552629232406616
1660273500067074000,1.316073974609375,-4.384180068969727,-0.03176499158143997,1.547932505607605
1660273500069073200,1.3180732421875,-4.384180068969727,-0.03176499158143997,1.547932505607605
1660273500071072300,1.320072265625,-4.384180068969727,-0.03176499158143997,1.547932505607605
1660273500073072000,1.322072021484375,-4.360356330871582,-0.022602014243602753,1.5369369983673096
1660273500075072300,1.324072265625,-4.312097549438477,-0.009162978269159794,1.5167783498764038
1660273500077072100,1.326072021484375,-4.2583417892456055,0.004886921960860491,1.4960089921951294
1660273500079072300,1.328072265625,-4.233907222747803,0.009162978269159794,1.4856243133544922
1660273500081073000,1.330072998046875,-4.180150985717773,0.02015855349600315,1.4624114036560059
1660273500083073800,1.33207373046875,-4.1190643310546875,0.03237585723400116,1.4379768371582031
1660273500085074700,1.33407470703125,-4.090353488922119,0.03298672288656235,1.42637038230896
1660273500087075600,1.33607568359375,-4.028656482696533,0.039095375686883926,1.4001030921936035
1660273500089075700,1.33807568359375,-3.966958999633789,0.045204028487205505,1.3738359212875366
1660273500091075800,1.340075927734375,-3.9351940155029297,0.04642575979232788,1.361007809638977
1660273500093075700,1.34207568359375,-3.8728857040405273,0.04886921867728233,1.3341296911239624
1660273500095075300,1.344075439453125,-3.8087449073791504,0.05192354694008827,1.3096951246261597
1660273500097075500,1.346075439453125,-3.7763688564300537,0.05253441259264946,1.2962560653686523
1660273500099075300,1.348075439453125,-3.7122280597686768,0.05314527451992035,1.2693779468536377
1660273500101075000,1.350074951171875,-3.450777769088745,0.05253441259264946,1.1716395616531372
1660273500103074000,1.352073974609375,-3.450777769088745,0.05253441259264946,1.1716395616531372
1660273500105073200,1.3540732421875,-3.4177911281585693,0.05009094998240471,1.158811330795288
1660273500107072500,1.356072509765625,-3.383582592010498,0.0507018156349659,1.1435397863388062
1660273500109071600,1.358071533203125,-3.383582592010498,0.0507018156349659,1.1435397863388062
1660273500111071000,1.360071044921875,-3.383582592010498,0.0507018156349659,1.1435397863388062
1660273500113070800,1.36207080078125,-3.3182199001312256,0.04886921867728233,1.1178834438323975
1660273500115070700,1.36407080078125,-3.282789945602417,0.04459316283464432,1.1032226085662842
1660273500117070800,1.36607080078125,-3.2149837017059326,0.04153883829712868,1.0769554376602173
1660273500119070700,1.36807080078125,-3.1441233158111572,0.03726277872920036,1.0488556623458862
1660273500121071600,1.370071533203125,-3.107471466064453,0.03481931984424591,1.0329731702804565
1660273500123072500,1.372072509765625,-3.0298917293548584,0.030543262138962746,1.0018190145492554
1660273500125073200,1.3740732421875,-2.9553661346435547,0.02382374368607998,0.9712757468223572
1660273500127074000,1.376073974609375,-2.9187140464782715,0.021380282938480377,0.9553932547569275
1660273500129075000,1.378074951171875,-2.8405234813690186,0.015882495790719986,0.9224064946174622
1660273500131075800,1.380075927734375,-2.764165163040161,0.014049900695681572,0.8930850028991699
1660273500133076000,1.382075927734375,-2.724458932876587,0.01160643994808197,0.8778133392333984
1660273500135076000,1.384076171875,-2.6456573009490967,0.006719517521560192,0.8521569967269897
1660273500137076200,1.386076171875,-2.5729644298553467,0.001832595793530345,0.827722430229187
1660273500139076000,1.388076171875,-2.535090684890747,-0.0012217304902151227,0.8124507665634155
1660273500141075500,1.390075439453125,-2.4239132404327393,-0.01038470957428217,0.7782423496246338
1660273500143074600,1.392074462890625,-2.3884830474853516,-0.01160643994808197,0.7666358947753906
1660273500145074400,1.394074462890625,-2.353663682937622,-0.015882495790719986,0.7562511563301086
1660273500147074300,1.39607421875,-2.2815816402435303,-0.02015855349600315,0.7348709106445312
1660273500149074200,1.39807421875,-2.214386463165283,-0.025045474991202354,0.7122688889503479
1660273500151074300,1.40007421875,-2.180788993835449,-0.02687807008624077,0.7012733221054077
1660273500153074200,1.40207421875,-2.113593816757202,-0.03237585723400116,0.6841690540313721
1660273500155074600,1.404074462890625,-2.0482311248779297,-0.036651913076639175,0.66584312915802
1660273500157074400,1.406074462890625,-2.0140228271484375,-0.03848451003432274,0.655458390712738
1660273500159074600,1.408074462890625,-1.948660135269165,-0.04337143152952194,0.637132465839386
1660273500161075500,1.410075439453125,-1.882686734199524,-0.04459316283464432,0.6218608021736145
1660273500163076400,1.412076416015625,-1.8478673696517944,-0.045204028487205505,0.6126978397369385
1660273500165077000,1.414076904296875,-1.7794504165649414,-0.04886921867728233,0.5955936312675476
1660273500167077600,1.41607763671875,-1.7134770154953003,-0.054367005825042725,0.5809328556060791
1660273500169078300,1.418078369140625,-1.680490255355835,-0.05803219974040985,0.5742133259773254
1660273500171079200,1.4200791015625,-1.6084082126617432,-0.0659734457731247,0.5613851547241211
1660273500173079000,1.4220791015625,-1.540602207183838,-0.07391469180583954,0.5528330206871033
1660273500175079200,1.4240791015625,-1.5051720142364502,-0.07757988572120667,0.5461135506629944
1660273500177079000,1.4260791015625,-1.4391984939575195,-0.08796459436416626,0.5381723046302795
1660273500179079200,1.4280791015625,-1.36955988407135,-0.09712757170200348,0.5283984541893005
1660273500181078300,1.430078369140625,-1.2370021343231201,-0.11789698898792267,0.5119050741195679
1660273500183077400,1.432077392578125,-1.2370021343231201,-0.11789698898792267,0.5119050741195679
1660273500185077500,1.434077392578125,-1.2009611129760742,-0.12278391420841217,0.5070181488990784
1660273500187077600,1.43607763671875,-1.169806957244873,-0.12767083942890167,0.5027421116828918
1660273500189077500,1.438077392578125,-1.1020009517669678,-0.13805554807186127,0.494189977645874
1660273500191077000,1.4400771484375,-1.0329731702804565,-0.1514945775270462,0.48197266459465027
1660273500193077000,1.442076904296875,-0.9999864101409912,-0.15821409225463867,0.4740314185619354
1660273500195077000,1.4440771484375,-0.9279043078422546,-0.16798794269561768,0.4593706727027893
1660273500197076700,1.44607666015625,-0.8600982427597046,-0.17898350954055786,0.4440990388393402
1660273500199076900,1.448076904296875,-0.8252789378166199,-0.18509216606616974,0.4343251883983612
1660273500201077500,1.450077392578125,-0.7525860071182251,-0.19914206862449646,0.4178318381309509
1660273500203078400,1.452078369140625,-0.6805039048194885,-0.20891591906547546,0.39706242084503174
1660273500205078500,1.45407861328125,-0.646906316280365,-0.21502456068992615,0.384845107793808
1660273500207078700,1.45607861328125,-0.5754350423812866,-0.22479841113090515,0.36651915311813354
1660273500209078300,1.458078369140625,-0.5064072608947754,-0.23273965716362,0.3445279896259308
1660273500211078400,1.460078369140625,-0.4691445231437683,-0.2382374405860901,0.3335324227809906
1660273500213078300,1.462078369140625,-0.4031710624694824,-0.24862214922904968,0.30970868468284607
1660273500215078400,1.464078369140625,-0.3378084897994995,-0.2571742534637451,0.28588494658470154
1660273500217078500,1.46607861328125,-0.3066543638706207,-0.2590068578720093,0.27550023794174194
1660273500219078400,1.468078369140625,-0.242513507604599,-0.2687807083129883,0.2535090744495392
1660273500221077500,1.470077392578125,-0.030543262138962746,-0.29016098380088806,0.1771509200334549
1660273500223076900,1.472076904296875,-0.030543262138962746,-0.29016098380088806,0.1771509200334549
1660273500225076000,1.474075927734375,-0.030543262138962746,-0.29016098380088806,0.1771509200334549
1660273500227075600,1.47607568359375,-0.030543262138962746,-0.29016098380088806,0.1771509200334549
1660273500229076000,1.478075927734375,-0.0012217304902151227,-0.294437050819397,0.16493362188339233
1660273500231076000,1.480076171875,0.05864306539297104,-0.3017674386501312,0.14416420459747314
1660273500233076000,1.482075927734375,0.11850785464048386,-0.30604347586631775,0.12278391420841217
1660273500235075600,1.48407568359375,0.1459967941045761,-0.30970868468284607,0.1111774742603302
1660273500237075500,1.486075439453125,0.2076941877603531,-0.31459560990333557,0.08796459436416626
1660273500239075600,1.48807568359375,0.2687807083129883,-0.3219259977340698,0.06291911751031876
1660273500241076000,1.490075927734375,0.29993483424186707,-0.323147714138031,0.0507018156349659
1660273500243076900,1.492076904296875,0.3628539443016052,-0.3274237811565399,0.024434609338641167
1660273500245077000,1.494076904296875,0.42699480056762695,-0.3335324227809906,-0.00427605677396059
1660273500247076900,1.496076904296875,0.4612032473087311,-0.3341432809829712,-0.01710422709584236
1660273500249076700,1.49807666015625,0.5283984541893005,-0.34025195240974426,-0.04886921867728233
1660273500251077000,1.5000771484375,0.6010913848876953,-0.34513887763023376,-0.07941248267889023
1660273500253077000,1.502076904296875,0.636521577835083,-0.3445279896259308,-0.09773843735456467
1660273500255077000,1.5040771484375,0.7098253965377808,-0.34758231043815613,-0.1313360333442688
1660273500257077200,1.5060771484375,0.7843509912490845,-0.35063666105270386,-0.1716531366109848
1660273500259077000,1.5080771484375,0.827111542224884,-0.35063666105270386,-0.19303341209888458
1660273500261076200,1.510076171875,1.1673635244369507,-0.35063666105270386,-0.39706242084503174
1660273500263075600,1.51207568359375,1.216843605041504,-0.35185837745666504,-0.42699480056762695
1660273500265074700,1.51407470703125,1.2638801336288452,-0.35124751925468445,-0.45814892649650574
1660273500267073800,1.51607373046875,1.2638801336288452,-0.35124751925468445,-0.45814892649650574
1660273500269073700,1.51807373046875,1.2638801336288452,-0.35124751925468445,-0.45814892649650574
1660273500271072800,1.52007275390625,1.3115277290344238,-0.35246923565864563,-0.4911356568336487
1660273500273072600,1.52207275390625,1.3616186380386353,-0.3494149148464203,-0.5247332453727722
1660273500275072800,1.52407275390625,1.46424400806427,-0.3494149148464203,-0.5968153476715088
1660273500277072600,1.52607275390625,1.5173892974853516,-0.34758231043815613,-0.6340781450271606
1660273500279072500,1.528072509765625,1.6242907047271729,-0.34574973583221436,-0.7110471725463867
1660273500281072600,1.53007275390625,1.730581283569336,-0.34513887763023376,-0.7874053120613098
1660273500283072500,1.532072509765625,1.7886134386062622,-0.34513887763023376,-0.8258898258209229
1660273500285072600,1.53407275390625,1.8973474502563477,-0.34697145223617554,-0.9046914577484131
1660273500287073000,1.536072998046875,2.0085248947143555,-0.35063666105270386,-0.9834930300712585
1660273500289073200,1.5380732421875,2.062891960144043,-0.35185837745666504,-1.0201449394226074
1660273500291071000,1.540071044921875,2.172236919403076,-0.35552358627319336,-1.0958921909332275
1660273500293071000,1.542071044921875,2.284025192260742,-0.3640756905078888,-1.168585181236267
1660273500295071200,1.5440712890625,2.337170362472534,-0.3640756905078888,-1.2021827697753906
1660273500297071400,1.5460712890625,2.4440717697143555,-0.3701843321323395,-1.2638801336288452
1660273500299071500,1.548071533203125,2.546086311340332,-0.37262779474258423,-1.3213015794754028
1660273500301069000,1.550069091796875,2.9052751064300537,-0.3689626157283783,-1.4691308736801147
1660273500303066600,1.552066650390625,2.942537784576416,-0.3689626157283783,-1.482569932937622
1660273500305064400,1.554064453125,2.981633186340332,-0.36651915311813354,-1.4899003505706787
1660273500307062500,1.5560625,2.981633186340332,-0.36651915311813354,-1.4899003505706787
1660273500309060600,1.558060546875,2.981633186340332,-0.36651915311813354,-1.4899003505706787
1660273500311060000,1.56006005859375,2.981633186340332,-0.36651915311813354,-1.4899003505706787
1660273500313060000,1.56206005859375,3.015230894088745,-0.3640756905078888,-1.500285029411316
1660273500315060000,1.56406005859375,3.081815242767334,-0.3549126982688904,-1.5070046186447144
1660273500317060000,1.56606005859375,3.1441233158111572,-0.34513887763023376,-1.5161675214767456
1660273500319060000,1.56806005859375,3.173444986343384,-0.3433062732219696,-1.5173892974853516
1660273500321060000,1.57006005859375,3.2259793281555176,-0.33108896017074585,-1.5167783498764038
1660273500323060000,1.57206005859375,3.2705724239349365,-0.3194825351238251,-1.5106697082519531
1660273500325060000,1.57406005859375,3.2895092964172363,-0.3139847218990326,-1.5063936710357666
1660273500327060000,1.57606005859375,3.327383041381836,-0.3023782968521118,-1.4978415966033936
1660273500329060000,1.57806005859375,3.3518176078796387,-0.2877175211906433,-1.4862351417541504
1660273500331060000,1.58006005859375,3.3646457195281982,-0.2822197377681732,-1.4789047241210938
1660273500333060000,1.58206005859375,3.386636972427368,-0.27000242471694946,-1.4624114036560059
1660273500335060200,1.584060302734375,3.403130292892456,-0.2541199326515198,-1.4428637027740479
1660273500337060400,1.586060302734375,3.408627986907959,-0.24862214922904968,-1.4324790239334106
1660273500339060500,1.588060546875,3.4190127849578857,-0.23273965716362,-1.4117095470428467
1660273500341058000,1.59005810546875,3.428175687789917,-0.2028072625398636,-1.3726142644882202
1660273500343058200,1.59205810546875,3.428175687789917,-0.2028072625398636,-1.3726142644882202
1660273500345058300,1.594058349609375,3.430619239807129,-0.18448130786418915,-1.3426817655563354
1660273500347058200,1.59605810546875,3.427564859390259,-0.17348572611808777,-1.3261884450912476
1660273500349058300,1.598058349609375,3.422677993774414,-0.15332718193531036,-1.29381263256073
1660273500351058200,1.60005810546875,3.419623613357544,-0.13439035415649414,-1.2620476484298706
1660273500353058300,1.602058349609375,3.414125919342041,-0.12461651116609573,-1.2443325519561768
1660273500355058200,1.60405810546875,3.408627986907959,-0.10751228034496307,-1.2095131874084473
1660273500357058300,1.606058349609375,3.4049627780914307,-0.08552113175392151,-1.1746938228607178
1660273500359058200,1.60805810546875,3.4019086360931396,-0.07635815441608429,-1.1594222784042358
1660273500361058300,1.610058349609375,3.3988542556762695,-0.05925392732024193,-1.1270463466644287
1660273500363058200,1.61205810546875,3.400686740875244,-0.0403171069920063,-1.0958921909332275
1660273500365058300,1.614058349609375,3.400686740875244,-0.033597588539123535,-1.0800096988677979
1660273500367058400,1.616058349609375,3.408017158508301,-0.013439035043120384,-1.053742527961731
1660273500369058300,1.618058349609375,3.4238996505737305,0.0006108652451075613,-1.0305296182632446
1660273500371058400,1.620058349609375,3.442225694656372,0.01710422709584236,-1.0103710889816284
1660273500373058600,1.62205859375,3.450777769088745,0.021380282938480377,-1.0018190145492554
1660273500375058400,1.624058349609375,3.4739906787872314,0.036041051149368286,-0.9859365224838257
1660273500377059800,1.626059814453125,3.500868797302246,0.04886921867728233,-0.9761626720428467
1660273500379060000,1.62806005859375,3.517972946166992,0.056810468435287476,-0.9743300676345825
1660273500381059000,1.63005908203125,3.5943310260772705,0.08307767659425735,-0.9749409556388855
1660273500383058400,1.632058349609375,3.5943310260772705,0.08307767659425735,-0.9749409556388855
1660273500385058300,1.634058349609375,3.6169331073760986,0.08857546001672745,-0.9779952764511108
1660273500387058400,1.636058349609375,3.671300172805786,0.09651670604944229,-0.988379955291748
1660273500389058300,1.638058349609375,3.7006216049194336,0.1014036312699318,-0.9969320893287659
1660273500391058400,1.640058349609375,3.7617082595825195,0.10873401165008545,-1.0140362977981567
1660273500393058000,1.64205810546875,3.82462739944458,0.11667526513338089,-1.0293079614639282
1660273500395058000,1.644057861328125,3.860668420791626,0.12034045159816742,-1.0415252447128296
1660273500397058000,1.64605810546875,3.9351940155029297,0.12950342893600464,-1.0610729455947876
1660273500399058000,1.648057861328125,4.0103302001953125,0.13439035415649414,-1.081842303276062
1660273500401059300,1.650059326171875,4.048203945159912,0.13866640627384186,-1.094059705734253
1660273500403059200,1.65205908203125,4.128838062286377,0.14844025671482086,-1.1191051006317139
1660273500405059000,1.65405908203125,4.207028865814209,0.14844025671482086,-1.1429288387298584
1660273500407059200,1.65605908203125,4.249789714813232,0.14905111491680145,-1.1551461219787598
1660273500409059000,1.65805908203125,4.332256317138672,0.14294247329235077,-1.176526427268982
1660273500411058700,1.66005859375,4.4122796058654785,0.13316862285137177,-1.2027937173843384
1660273500413058800,1.662058837890625,4.453207492828369,0.12522737681865692,-1.2131783962249756
1660273500415059000,1.664058837890625,4.532619953155518,0.10995574295520782,-1.2370021343231201
1660273500417058800,1.666058837890625,4.611421585083008,0.09224065393209457,-1.2577714920043945
1660273500419059000,1.668058837890625,4.649295330047607,0.08429940044879913,-1.2699888944625854
1660273500421058000,1.67005810546875,4.893641471862793,-0.001832595793530345,-1.3237450122833252
1660273500423057200,1.67205712890625,4.893641471862793,-0.001832595793530345,-1.3237450122833252
1660273500425056300,1.67405615234375,4.922352313995361,-0.013439035043120384,-1.330464482307434
1660273500427055400,1.676055419921875,4.922352313995361,-0.013439035043120384,-1.330464482307434
1660273500429055000,1.678054931640625,4.952284336090088,-0.025045474991202354,-1.3353514671325684
1660273500431055000,1.68005517578125,4.980384349822998,-0.03848451003432274,-1.338405728340149
1660273500433055000,1.682054931640625,5.0347514152526855,-0.06230825558304787,-1.3451253175735474
1660273500435054800,1.684054931640625,5.086674690246582,-0.0861319974064827,-1.3457361459732056
1660273500437053700,1.6860537109375,5.105611801147461,-0.09896016865968704,-1.3457361459732056
1660273500439053800,1.6880537109375,5.148372173309326,-0.12217304855585098,-1.338405728340149
1660273500441054500,1.690054443359375,5.185024261474609,-0.1459967941045761,-1.3261884450912476
1660273500443054600,1.6920546875,5.200906753540039,-0.1569923609495163,-1.318858027458191
1660273500445054700,1.6940546875,5.227173805236816,-0.1814269721508026,-1.3005321025848389
1660273500447054800,1.696054931640625,5.246110916137695,-0.20463985204696655,-1.2785409688949585
1660273500449054700,1.6980546875,5.256495475769043,-0.2174680233001709,-1.2657127380371094
1660273500451054800,1.700054931640625,5.268101692199707,-0.24434609711170197,-1.2376129627227783
1660273500453055200,1.70205517578125,5.277875900268555,-0.26939156651496887,-1.2101240158081055
1660273500455055000,1.70405517578125,5.280930042266846,-0.2791654169559479,-1.1936306953430176
1660273500457055200,1.70605517578125,5.2833733558654785,-0.303600013256073,-1.160033106803894
1660273500459055000,1.70805517578125,5.284595012664795,-0.3286454975605011,-1.1246029138565063
1660273500461054000,1.710053955078125,5.25405216217041,-0.4245513379573822,-0.9731083512306213
1660273500463053000,1.712052978515625,5.246110916137695,-0.43737950921058655,-0.9547823667526245
1660273500465052200,1.71405224609375,5.238780498504639,-0.4502076804637909,-0.9334021210670471
1660273500467051300,1.71605126953125,5.238780498504639,-0.4502076804637909,-0.9334021210670471
1660273500469050400,1.71805029296875,5.238780498504639,-0.4502076804637909,-0.9334021210670471
1660273500471050000,1.720050048828125,5.238780498504639,-0.4502076804637909,-0.9334021210670471
1660273500473049900,1.7220498046875,5.225341320037842,-0.46181413531303406,-0.9132435321807861
1660273500475050000,1.724050048828125,5.201517581939697,-0.485027015209198,-0.8747590184211731
1660273500477049900,1.7260498046875,5.172806739807129,-0.5125159621238708,-0.8350527882575989
1660273500479049500,1.728049560546875,5.156924247741699,-0.5229006409645081,-0.816726803779602
1660273500481061400,1.730061279296875,5.120272636413574,-0.5485569834709167,-0.779464066028595
1660273500483061500,1.7320615234375,5.084231376647949,-0.5742133259773254,-0.7434229850769043
1660273500485061400,1.734061279296875,5.064073085784912,-0.5876523852348328,-0.7299839854240417
1660273500487061500,1.7360615234375,5.023144721984863,-0.6126978397369385,-0.6976081132888794
1660273500489061600,1.7380615234375,4.982827663421631,-0.6322455406188965,-0.6719517707824707
1660273500491061800,1.740061767578125,4.9620585441589355,-0.6389650702476501,-0.6572909951210022
1660273500493062100,1.742062255859375,4.916243553161621,-0.656680166721344,-0.6346889734268188
1660273500495062300,1.744062255859375,4.8728718757629395,-0.6713408827781677,-0.6139195561408997
1660273500497062400,1.7460625,4.849048137664795,-0.6768386960029602,-0.6041457056999207
1660273500499062500,1.7480625,4.803844451904297,-0.6835582256317139,-0.5900958180427551
1660273500501060000,1.75006005859375,4.595539093017578,-0.7092145681381226,-0.5491678714752197
1660273500503058000,1.752057861328125,4.573548316955566,-0.7067710757255554,-0.5479460954666138
1660273500505055700,1.7540556640625,4.573548316955566,-0.7067710757255554,-0.5479460954666138
1660273500507053600,1.756053466796875,4.552167892456055,-0.7055493593215942,-0.5467243790626526
1660273500509051600,1.7580517578125,4.552167892456055,-0.7055493593215942,-0.5467243790626526
1660273500511050000,1.760050048828125,4.552167892456055,-0.7055493593215942,-0.5467243790626526
1660273500513050000,1.762050048828125,4.528954982757568,-0.7043276429176331,-0.5479460954666138
1660273500515050000,1.764050048828125,4.505742073059082,-0.7006624341011047,-0.5467243790626526
1660273500517050000,1.766050048828125,4.461759567260742,-0.6908885836601257,-0.5528330206871033
1660273500519050000,1.768050048828125,4.418999195098877,-0.6780604124069214,-0.5577199459075928
1660273500521051100,1.770051025390625,4.398229598999023,-0.6707300543785095,-0.5613851547241211
1660273500523051000,1.772051025390625,4.356080055236816,-0.6493497490882874,-0.5723807215690613
1660273500525051100,1.774051025390625,4.319427967071533,-0.627358615398407,-0.5864306092262268
1660273500527051000,1.776051025390625,4.299269676208496,-0.6114761233329773,-0.5925393104553223
1660273500529051100,1.778051025390625,4.26017427444458,-0.5809328556060791,-0.6102544069290161
1660273500531051000,1.780051025390625,4.2223005294799805,-0.5479460954666138,-0.6279694437980652
1660273500533051100,1.782051025390625,4.205196380615234,-0.5290092825889587,-0.6383541822433472
1660273500535051300,1.78405126953125,4.166100978851318,-0.4917465150356293,-0.6536257863044739
1660273500537051100,1.786051025390625,4.125783920288086,-0.44654250144958496,-0.6798930168151855
1660273500539051000,1.788051025390625,4.108068943023682,-0.42638394236564636,-0.6914994716644287
1660273500541048300,1.79004833984375,4.043316841125488,-0.3543018400669098,-0.7324274182319641
1660273500543048200,1.792048095703125,4.0268235206604,-0.3280346393585205,-0.7470881938934326
1660273500545047000,1.794047119140625,4.0042219161987305,-0.2993239760398865,-0.7623597979545593
1660273500547046100,1.796046142578125,3.961461067199707,-0.24434609711170197,-0.7935139536857605
1660273500549046000,1.7980458984375,3.921754837036133,-0.18509216606616974,-0.827722430229187
1660273500551046000,1.8000458984375,3.899763822555542,-0.152105450630188,-0.8478809595108032
1660273500553045200,1.802045166015625,3.855781316757202,-0.08918632566928864,-0.8912523984909058
1660273500555045000,1.804045166015625,3.813020944595337,-0.021991148591041565,-0.9340129494667053
1660273500557045000,1.806044921875,3.790418863296509,0.010995574295520782,-0.9541715383529663
1660273500559045000,1.808045166015625,3.743382215499878,0.08124507963657379,-1.0030407905578613
1660273500561045000,1.810044921875,3.7000107765197754,0.15332718193531036,-1.0525208711624146
1660273500563044900,1.812044921875,3.676187038421631,0.19058994948863983,-1.0781772136688232
1660273500565044700,1.814044677734375,3.634648323059082,0.26083946228027344,-1.1325441598892212
1660273500567044900,1.816044921875,3.590665817260742,0.33597588539123535,-1.1850786209106445
1660273500569044700,1.818044677734375,3.5662312507629395,0.3744603991508484,-1.2113457918167114
1660273500571044900,1.820044921875,3.519805431365967,0.44776421785354614,-1.2626584768295288
1660273500573044700,1.822044677734375,3.475823163986206,0.5259549617767334,-1.313360333442688
1660273500575044900,1.824044921875,3.4519994258880615,0.5674937963485718,-1.3390166759490967
1660273500577044700,1.826044677734375,3.4049627780914307,0.6444628238677979,-1.3842206001281738
1660273500579044900,1.828044921875,3.358537197113037,0.7257078886032104,-1.4275920391082764
1660273500581044000,1.8300439453125,3.2650747299194336,0.8851437568664551,-1.5063936710357666
1660273500583043000,1.83204296875,3.2650747299194336,0.8851437568664551,-1.5063936710357666
1660273500585042700,1.834042724609375,3.240640163421631,0.9248499870300293,-1.5247195959091187
1660273500587042600,1.83604248046875,3.2180380821228027,0.9633345007896423,-1.541213035583496
1660273500589042700,1.838042724609375,3.1728341579437256,1.0396926403045654,-1.5766432285308838
1660273500591042600,1.84004248046875,3.1227431297302246,1.112385630607605,-1.6010777950286865
1660273500593042400,1.84204248046875,3.09891939163208,1.1520918607711792,-1.6145168542861938
1660273500595042600,1.84404248046875,3.0524935722351074,1.2205088138580322,-1.6371188163757324
1660273500597042400,1.84604248046875,3.0017917156219482,1.2901474237442017,-1.6584991216659546
1660273500599042600,1.84804248046875,2.9749138355255127,1.3255776166915894,-1.6701055765151978
1660273500601043500,1.85004345703125,2.9211575984954834,1.3933836221694946,-1.6884315013885498
1660273500603043600,1.852043701171875,2.866790533065796,1.4563027620315552,-1.7037031650543213
1660273500605044000,1.8540439453125,2.841745138168335,1.4868459701538086,-1.712866187095642
1660273500607044400,1.85604443359375,2.7849347591400146,1.5485434532165527,-1.7214182615280151
1660273500609044500,1.85804443359375,2.7238481044769287,1.6108516454696655,-1.7318029403686523
1660273500611044400,1.86004443359375,2.6957483291625977,1.6395623683929443,-1.7373007535934448
1660273500613044700,1.862044677734375,2.6364943981170654,1.6951510906219482,-1.740355134010315
1660273500615044900,1.864044921875,2.574186086654663,1.747685432434082,-1.7385225296020508
1660273500617044700,1.866044677734375,2.543642997741699,1.7739527225494385,-1.737911581993103
1660273500619044900,1.868044921875,2.475836753845215,1.8197675943374634,-1.7318029403686523
1660273500621044000,1.8700439453125,2.238821029663086,1.9443840980529785,-1.6768250465393066
1660273500623043000,1.87204296875,2.238821029663086,1.9443840980529785,-1.6768250465393066
1660273500625042200,1.874042236328125,2.238821029663086,1.9443840980529785,-1.6768250465393066
1660273500627041300,1.876041259765625,2.238821029663086,1.9443840980529785,-1.6768250465393066
1660273500629041200,1.878041259765625,2.2070560455322266,1.958433985710144,-1.6633861064910889
1660273500631041300,1.880041259765625,2.1343631744384766,1.9816468954086304,-1.6383405923843384
1660273500633041200,1.882041259765625,2.065946340560913,2.0005836486816406,-1.6102408170700073
1660273500635041300,1.884041259765625,2.0280725955963135,2.004859685897827,-1.5937473773956299
1660273500637041200,1.886041259765625,1.955379605293274,2.012800931930542,-1.557706356048584
1660273500639041000,1.888041015625,1.8851301670074463,2.0201313495635986,-1.5210545063018799
1660273500641042000,1.8900419921875,1.8460347652435303,2.0219640731811523,-1.50211763381958
1660273500643042800,1.892042724609375,1.7739527225494385,2.0201313495635986,-1.4611896276474
1660273500645043200,1.894043212890625,1.701259732246399,2.0115792751312256,-1.4147639274597168
1660273500647044000,1.896044189453125,1.6670511960983276,2.0054705142974854,-1.3909401893615723
1660273500649044200,1.898044189453125,1.5925257205963135,1.9920315742492676,-1.3408491611480713
1660273500651044000,1.900044189453125,1.522887110710144,1.974927306175232,-1.2877039909362793
1660273500653044200,1.902044189453125,1.4868459701538086,1.9614882469177246,-1.2614367008209229
1660273500655044000,1.904044189453125,1.4184291362762451,1.9339994192123413,-1.2015719413757324
1660273500657044200,1.906044189453125,1.3536773920059204,1.9040669202804565,-1.1435397863388062
1660273500659045400,1.90804541015625,1.3200798034667969,1.8881844282150269,-1.112385630607605
1660273500661044500,1.91004443359375,1.1062769889831543,1.7373007535934448,-0.8827002644538879
1660273500663043600,1.912043701171875,1.1062769889831543,1.7373007535934448,-0.8827002644538879
1660273500665042700,1.914042724609375,1.0800096988677979,1.7085901498794556,-0.846659243106842
1660273500667041800,1.916041748046875,1.0800096988677979,1.7085901498794556,-0.846659243106842
1660273500669042000,1.9180419921875,1.0525208711624146,1.6841554641723633,-0.8118399381637573
1660273500671041800,1.920041748046875,1.0238101482391357,1.6560556888580322,-0.7757988572120667
1660273500673042000,1.9220419921875,0.9755517840385437,1.598023533821106,-0.7073819637298584
1660273500675041800,1.924041748046875,0.9279043078422546,1.540602207183838,-0.6407976150512695
1660273500677042000,1.9260419921875,0.9059131741523743,1.5082262754440308,-0.6017022728919983
1660273500679042600,1.92804248046875,0.8655960559844971,1.445918083190918,-0.53328537940979
1660273500681043500,1.93004345703125,0.827111542224884,1.3811663389205933,-0.46242499351501465
1660273500683044600,1.932044677734375,0.8106181621551514,1.350012183189392,-0.4282165467739105
1660273500685045500,1.93404541015625,0.778853178024292,1.2754865884780884,-0.3597996234893799
1660273500687046400,1.93604638671875,0.7507534027099609,1.207680583000183,-0.2974913716316223
1660273500689046300,1.93804638671875,0.7385360598564148,1.1728612184524536,-0.26572638750076294
1660273500691046400,1.94004638671875,0.7177666425704956,1.0965031385421753,-0.20341812074184418
1660273500693046300,1.94204638671875,0.6963863968849182,1.0183123350143433,-0.1417207419872284
1660273500695046400,1.94404638671875,0.6902777552604675,0.9822713136672974,-0.11239920556545258
1660273500697046300,1.94604638671875,0.6768386960029602,0.9040805697441101,-0.05192354694008827
1660273500699046400,1.94804638671875,0.665232241153717,0.8301658630371094,0.00427605677396059
1660273500701045500,1.95004541015625,0.6389650702476501,0.5253441333770752,0.2125810980796814
1660273500703044600,1.952044677734375,0.6352998614311218,0.4899139404296875,0.23579397797584534
1660273500705043700,1.954043701171875,0.6346889734268188,0.4538728892803192,0.2571742534637451
1660273500707042000,1.9560419921875,0.6346889734268188,0.4538728892803192,0.2571742534637451
1660273500709041400,1.95804150390625,0.6346889734268188,0.4538728892803192,0.2571742534637451
1660273500711040500,1.96004052734375,0.6346889734268188,0.4538728892803192,0.2571742534637451
1660273500713040400,1.962040283203125,0.6310238242149353,0.4178318381309509,0.2779437005519867
1660273500715040300,1.964040283203125,0.6230825781822205,0.3445279896259308,0.3176499307155609
1660273500717040400,1.966040283203125,0.6188064813613892,0.27611109614372253,0.3530801236629486
1660273500719039200,1.968039306640625,0.6151412725448608,0.24129177629947662,0.3695734739303589
1660273500721039000,1.9700390625,0.6120869517326355,0.17531833052635193,0.3988949954509735
1660273500723039200,1.972039306640625,0.6053674817085266,0.11056660860776901,0.42271876335144043
1660273500725039600,1.97403955078125,0.6010913848876953,0.07696902006864548,0.4349360466003418
1660273500727040000,1.9760400390625,0.5955936312675476,0.01710422709584236,0.4508185386657715
1660273500729040400,1.978040283203125,0.588874101638794,-0.039706241339445114,0.4642575979232788
1660273500731040500,1.98004052734375,0.5809328556060791,-0.06658431142568588,0.46547931432724
1660273500733040600,1.98204052734375,0.5729916095733643,-0.1160643994808197,0.4709770977497101
1660273500735040800,1.984040771484375,0.5552765130996704,-0.1667662113904953,0.4697553813457489
1660273500737041000,1.986041015625,0.5467243790626526,-0.18814650177955627,0.46792277693748474
1660273500739041000,1.988041015625,0.5265658497810364,-0.23273965716362,0.4593706727027893
1660273500741038300,1.990038330078125,0.4996877610683441,-0.2687807083129883,0.44776421785354614
1660273500743038000,1.992037841796875,0.4856378734111786,-0.28588494658470154,0.4392121136188507
1660273500745038000,1.9940380859375,0.4550946056842804,-0.3182607889175415,0.42699480056762695
1660273500747038000,1.996037841796875,0.42210787534713745,-0.34697145223617554,0.4086688458919525
1660273500749038000,1.9980380859375,0.40133845806121826,-0.3604104816913605,0.40133845806121826
1660273500751038200,2.0000380859375,0.3628539443016052,-0.3836233615875244,0.384845107793808
1660273500753038000,2.0020380859375,0.32498031854629517,-0.4050036668777466,0.37201693654060364
1660273500755038200,2.0040380859375,0.304210901260376,-0.4153883755207062,0.3634648323059082
1660273500757038000,2.0060380859375,0.2638937830924988,-0.43127086758613586,0.3530801236629486
1660273500759037700,2.00803759765625,0.23273965716362,-0.44165557622909546,0.34574973583221436
1660273500761037600,2.01003759765625,0.21441370248794556,-0.44837507605552673,0.342695415019989
1660273500763037700,2.01203759765625,0.17531833052635193,-0.46303585171699524,0.33719760179519653
1660273500765038800,2.014038818359375,0.14416420459747314,-0.47708576917648315,0.3390302062034607
1660273500767038700,2.016038818359375,0.12950342893600464,-0.4856378734111786,0.3390302062034607
1660273500769038800,2.018038818359375,0.09712757170200348,-0.504574716091156,0.3488040566444397
1660273500771038700,2.020038818359375,0.06902777403593063,-0.5241223573684692,0.35674530267715454
1660273500773038800,2.022038818359375,0.056810468435287476,-0.5381723046302795,0.36163222789764404
1660273500775039000,2.0240390625,0.03176499158143997,-0.5632177591323853,0.37690386176109314
1660273500777038800,2.026038818359375,0.009773843921720982,-0.5968153476715088,0.39156460762023926
1660273500779039000,2.0280390625,-0.005497787147760391,-0.6139195561408997,0.40194934606552124
1660273500781038000,2.0300380859375,-0.05497787147760391,-0.6902777552604675,0.4331034719944
1660273500783037400,2.032037353515625,-0.05497787147760391,-0.6902777552604675,0.4331034719944
1660273500785037300,2.034037353515625,-0.06719517707824707,-0.7079927921295166,0.44104471802711487
1660273500787037200,2.036037109375,-0.09468411654233932,-0.7434229850769043,0.45692721009254456
1660273500789037300,2.038037353515625,-0.12339477986097336,-0.7776314616203308,0.4715879559516907
1660273500791037200,2.040037109375,-0.1362229436635971,-0.7941248416900635,0.4813618063926697
1660273500793037300,2.042037353515625,-0.1667662113904953,-0.8234463334083557,0.4966334402561188
1660273500795037200,2.044037109375,-0.1973094791173935,-0.8472700715065002,0.5094616413116455
1660273500797037000,2.046037109375,-0.2174680233001709,-0.8637634515762329,0.5155702829360962
1660273500799037200,2.048037109375,-0.25473082065582275,-0.8814785480499268,0.5216789245605469
1660273500801038000,2.0500380859375,-0.30054569244384766,-0.8985827565193176,0.5241223573684692
1660273500803038200,2.0520380859375,-0.32681289315223694,-0.9040805697441101,0.5247332453727722
1660273500805038000,2.0540380859375,-0.3793473243713379,-0.9169087409973145,0.5229006409645081
1660273500807038200,2.0560380859375,-0.4392121136188507,-0.921795666217804,0.5149593949317932
1660273500809038000,2.0580380859375,-0.47769662737846375,-0.9205739498138428,0.5094616413116455
1660273500811038200,2.0600380859375,-0.5461135506629944,-0.9150761365890503,0.4954117238521576
1660273500813038300,2.062038330078125,-0.626747727394104,-0.9046914577484131,0.4789183437824249
1660273500815038200,2.0640380859375,-0.6719517707824707,-0.8973610401153564,0.4703662395477295
1660273500817038000,2.0660380859375,-0.7605272531509399,-0.8784242272377014,0.4495968222618103
1660273500819038500,2.06803857421875,-0.8594874143600464,-0.8582656979560852,0.4306600093841553
1660273500821037600,2.07003759765625,-1.1911872625350952,-0.7586946487426758,0.3854559659957886
1660273500823036700,2.07203662109375,-1.2510520219802856,-0.7348709106445312,0.3805690407752991
1660273500825034800,2.07403466796875,-1.2510520219802856,-0.7348709106445312,0.3805690407752991
1660273500827033900,2.076033935546875,-1.2510520219802856,-0.7348709106445312,0.3805690407752991
1660273500829034000,2.078033935546875,-1.3127493858337402,-0.7122688889503479,0.3787364661693573
1660273500831033900,2.080033935546875,-1.4312572479248047,-0.6609562039375305,0.37629300355911255
1660273500833034000,2.082033935546875,-1.492343783378601,-0.6334672570228577,0.37751471996307373
1660273500835033900,2.084033935546875,-1.6200146675109863,-0.578489363193512,0.38606682419776917
1660273500837034000,2.086033935546875,-1.7434093952178955,-0.5241223573684692,0.40194934606552124
1660273500839033900,2.088033935546875,-1.80510675907135,-0.4948008358478546,0.41111230850219727
1660273500841034800,2.09003466796875,-1.927890658378601,-0.4386012554168701,0.4343251883983612
1660273500843036000,2.092035888671875,-2.0421226024627686,-0.38606682419776917,0.4660901725292206
1660273500845035800,2.094035888671875,-2.1001546382904053,-0.3597996234893799,0.48197266459465027
1660273500847036000,2.096035888671875,-2.2119431495666504,-0.313373863697052,0.5180137157440186
1660273500849036000,2.0980361328125,-2.317622661590576,-0.2718350291252136,0.5650503635406494
1660273500851036000,2.100035888671875,-2.3683245182037354,-0.251676470041275,0.5900958180427551
1660273500853036000,2.1020361328125,-2.464841365814209,-0.21441370248794556,0.6389650702476501
1660273500855036000,2.104035888671875,-2.554027557373047,-0.1820378452539444,0.6914994716644287
1660273500857036000,2.1060361328125,-2.596177339553833,-0.16982053220272064,0.7220427393913269
1660273500859036200,2.1080361328125,-2.6780333518981934,-0.15027284622192383,0.7800748944282532
1660273500861035300,2.11003515625,-2.8991663455963135,-0.1417207419872284,0.9908234477043152
1660273500863034400,2.112034423828125,-2.8991663455963135,-0.1417207419872284,0.9908234477043152
1660273500865033500,2.114033447265625,-2.8991663455963135,-0.1417207419872284,0.9908234477043152
1660273500867032600,2.116032470703125,-2.9223792552948,-0.1514945775270462,1.0250319242477417
1660273500869032400,2.118032470703125,-2.9223792552948,-0.1514945775270462,1.0250319242477417
1660273500871032600,2.120032470703125,-2.9626965522766113,-0.1661553531885147,1.086118459701538
1660273500873032400,2.122032470703125,-2.9987375736236572,-0.18997909128665924,1.1527026891708374
1660273500875032300,2.1240322265625,-3.0133981704711914,-0.20586158335208893,1.1850786209106445
1660273500877032700,2.12603271484375,-3.0378329753875732,-0.24007004499435425,1.2559388875961304
1660273500879032600,2.128032470703125,-3.054326295852661,-0.2828305959701538,1.3237450122833252
1660273500881034000,2.130033935546875,-3.0610456466674805,-0.3078760802745819,1.3585642576217651
1660273500883035000,2.132034912109375,-3.064710855484009,-0.3604104816913605,1.4306464195251465
1660273500885035800,2.134035888671875,-3.0641000270843506,-0.4190535545349121,1.4996742010116577
1660273500887037000,2.136036865234375,-3.0610456466674805,-0.45204028487205505,1.5351043939590454
1660273500889036800,2.138036865234375,-3.0494391918182373,-0.5222898125648499,1.606575608253479
1660273500891037000,2.140036865234375,-3.034167766571045,-0.6004805564880371,1.6725490093231201
1660273500893036800,2.142036865234375,-3.0213394165039062,-0.6401867866516113,1.7055357694625854
1660273500895036700,2.14403662109375,-2.995683193206787,-0.7281513810157776,1.7708983421325684
1660273500897036800,2.146036865234375,-2.965139865875244,-0.8197811841964722,1.8362609148025513
1660273500899036700,2.14803662109375,-2.9462029933929443,-0.8655960559844971,1.8661932945251465
1660273500901036000,2.1500361328125,-2.758667469024658,-1.310916781425476,2.120924234390259
1660273500903034600,2.15203466796875,-2.758667469024658,-1.310916781425476,2.120924234390259
1660273500905034000,2.154033935546875,-2.735454559326172,-1.3603968620300293,2.1429152488708496
1660273500907033000,2.156033203125,-2.735454559326172,-1.3603968620300293,2.1429152488708496
1660273500909032000,2.158031982421875,-2.7122416496276855,-1.406822681427002,2.1649065017700195
1660273500911031000,2.160031005859375,-2.7122416496276855,-1.406822681427002,2.1649065017700195
1660273500913031200,2.16203125,-2.688417911529541,-1.4581353664398193,2.1868975162506104
1660273500915031000,2.164031005859375,-2.6456573009490967,-1.547932505607605,2.22171688079834
1660273500917031200,2.16603125,-2.623666286468506,-1.5919147729873657,2.2394320964813232
1660273500919031000,2.168031005859375,-2.5833492279052734,-1.680490255355835,2.269975185394287
1660273500921031000,2.170031005859375,-2.543642997741699,-1.7580702304840088,2.289522886276245
1660273500923031000,2.172031005859375,-2.5247061252593994,-1.7983872890472412,2.29746413230896
1660273500925031000,2.174031005859375,-2.4917192459106445,-1.86497163772583,2.3078489303588867
1660273500927031300,2.17603125,-2.476447820663452,-1.8961256742477417,2.3102922439575195
1660273500929031700,2.17803173828125,-2.448347806930542,-1.957212209701538,2.3102922439575195
1660273500931031800,2.18003173828125,-2.426356792449951,-2.0091357231140137,2.3023509979248047
1660273500933032000,2.182031982421875,-2.417804718017578,-2.0360138416290283,2.299907684326172
1660273500935032000,2.184031982421875,-2.4043655395507812,-2.0787744522094727,2.2846360206604004
1660273500937032200,2.1860322265625,-2.39520263671875,-2.1123719215393066,2.2602014541625977
1660273500939032300,2.1880322265625,-2.394591808319092,-2.1264219284057617,2.2461514472961426
1660273500941030000,2.19002978515625,-2.397646188735962,-2.1587977409362793,2.1960606575012207
1660273500943030800,2.19203076171875,-2.3994786739349365,-2.1642956733703613,2.1765129566192627
1660273500945030700,2.19403076171875,-2.4086415767669678,-2.1710150241851807,2.155743360519409
1660273500947030800,2.19603076171875,-2.420858860015869,-2.174069404602051,2.1093177795410156
1660273500949030700,2.19803076171875,-2.445904493331909,-2.1697933673858643,2.0537290573120117
1660273500951030800,2.20003076171875,-2.4550673961639404,-2.161241292953491,2.024407386779785
1660273500953030700,2.20203076171875,-2.481334686279297,-2.140471935272217,1.9645426273345947
1660273500955030800,2.20403076171875,-2.5143213272094727,-2.112982988357544,1.9022343158721924
1660273500957030700,2.20603076171875,-2.529592990875244,-2.0971004962921143,1.8674150705337524
1660273500959030800,2.20803076171875,-2.5699100494384766,-2.0567831993103027,1.7996090650558472
1660273500961030700,2.21003076171875,-2.6114490032196045,-2.0134117603302,1.730581283569336
1660273500963030800,2.21203076171875,-2.635272741317749,-1.987755537033081,1.693318486213684
1660273500965031000,2.214031005859375,-2.6847527027130127,-1.9346102476119995,1.6218472719192505
1660273500967030800,2.21603076171875,-2.740952253341675,-1.871691107749939,1.5473216772079468
1660273500969031000,2.218031005859375,-2.7684412002563477,-1.8368717432022095,1.511891484260559
1660273500971031000,2.220031005859375,-2.825251817703247,-1.7623462677001953,1.4404202699661255
1660273500973031000,2.222031005859375,-2.883894920349121,-1.683544635772705,1.3658946752548218
1660273500975031000,2.224031005859375,-2.9132163524627686,-1.645671010017395,1.330464482307434
1660273500977031000,2.226031005859375,-2.970637798309326,-1.5650367736816406,1.2589932680130005
1660273500979031000,2.228031005859375,-3.031724214553833,-1.4880677461624146,1.1917980909347534
1660273500981030100,2.230030029296875,-3.1532864570617676,-1.3329079151153564,1.06351637840271
1660273500983029200,2.232029296875,-3.1532864570617676,-1.3329079151153564,1.06351637840271
1660273500985029400,2.234029296875,-3.1832187175750732,-1.2962560653686523,1.035416603088379
1660273500987029500,2.236029541015625,-3.2094860076904297,-1.2565498352050781,1.0042624473571777
1660273500989029400,2.238029296875,-3.268739938735962,-1.1838568449020386,0.950506329536438
1660273500991029000,2.240029052734375,-3.3255503177642822,-1.1099421977996826,0.9040805697441101
1660273500993028900,2.24202880859375,-3.3536500930786133,-1.074512004852295,0.8790351152420044
1660273500995029000,2.244029052734375,-3.405573844909668,-1.0042624473571777,0.8381071090698242
1660273500997028900,2.24602880859375,-3.4581081867218018,-0.9370672702789307,0.7996225953102112
1660273500999029000,2.248029052734375,-3.4831535816192627,-0.9059131741523743,0.7825183868408203
1660273501001029400,2.250029296875,-3.528357744216919,-0.8405506014823914,0.750142514705658
1660273501003029000,2.252029052734375,-3.5747833251953125,-0.7831292152404785,0.7226535677909851
1660273501005029000,2.254029052734375,-3.5943310260772705,-0.7556403279304504,0.7086036801338196
1660273501007029000,2.256029052734375,-3.6383132934570312,-0.7024950385093689,0.685390830039978
1660273501009029000,2.258029052734375,-3.6810739040374756,-0.6517932415008545,0.6627888083457947
1660273501011029200,2.260029296875,-3.698789119720459,-0.6304129362106323,0.655458390712738
1660273501013029000,2.262029052734375,-3.738495349884033,-0.5864306092262268,0.6389650702476501
1660273501015029200,2.264029296875,-3.7751471996307373,-0.5473352670669556,0.6249151229858398
1660273501017029400,2.266029296875,-3.7922513484954834,-0.5283984541893005,0.617584764957428
1660273501019029200,2.268029296875,-3.8252382278442383,-0.4905247986316681,0.607200026512146
1660273501021028400,2.2700283203125,-3.930917739868164,-0.39584067463874817,0.5955936312675476
1660273501023027500,2.27202734375,-3.930917739868164,-0.39584067463874817,0.5955936312675476
1660273501025026600,2.274026611328125,-3.930917739868164,-0.39584067463874817,0.5955936312675476
1660273501027025700,2.276025634765625,-3.930917739868164,-0.39584067463874817,0.5955936312675476
1660273501029025500,2.278025634765625,-3.944356918334961,-0.3842342495918274,0.59803706407547
1660273501031025700,2.280025634765625,-3.97001314163208,-0.3640756905078888,0.598647952079773
1660273501033025500,2.282025634765625,-3.992615222930908,-0.3439171314239502,0.6023131608963013
1660273501035025700,2.284025634765625,-4.00788688659668,-0.33292156457901,0.6047565937042236
1660273501037025500,2.286025634765625,-4.028656482696533,-0.31581732630729675,0.6059783101081848
1660273501039025700,2.288025634765625,-4.050036430358887,-0.29993483424186707,0.6108652353286743
1660273501041026600,2.290026611328125,-4.059810638427734,-0.2938261926174164,0.6114761233329773
1660273501043027500,2.29202734375,-4.075693130493164,-0.2773328125476837,0.6151412725448608
1660273501045027300,2.29402734375,-4.095240592956543,-0.26511552929878235,0.617584764957428
1660273501047027200,2.296027099609375,-4.103181838989258,-0.2577851414680481,0.6194173693656921
1660273501049027000,2.298027099609375,-4.1190643310546875,-0.24556782841682434,0.6249151229858398
1660273501051027500,2.30002734375,-4.131281852722168,-0.22846360504627228,0.6298020482063293
1660273501053027300,2.30202734375,-4.138612270355225,-0.2223549485206604,0.6316346526145935
1660273501055027500,2.30402734375,-4.148996829986572,-0.20891591906547546,0.6346889734268188
1660273501057027300,2.30602734375,-4.15938138961792,-0.19792033731937408,0.6407976150512695
1660273501059027500,2.30802734375,-4.162436008453369,-0.18997909128665924,0.6414085030555725
1660273501061026800,2.31002685546875,-4.182594299316406,-0.14416420459747314,0.6633996367454529
1660273501063026000,2.31202587890625,-4.182594299316406,-0.14416420459747314,0.6633996367454529
1660273501065025000,2.31402490234375,-4.182594299316406,-0.14416420459747314,0.6633996367454529
1660273501067024400,2.3160244140625,-4.182594299316406,-0.14416420459747314,0.6633996367454529
1660273501069024300,2.318024169921875,-4.183815956115723,-0.14049901068210602,0.665232241153717
1660273501071024000,2.320024169921875,-4.183815956115723,-0.13377949595451355,0.6701191663742065
1660273501073024300,2.322024169921875,-4.188092231750488,-0.12522737681865692,0.6743952035903931
1660273501075024100,2.324024169921875,-4.186259746551514,-0.11728613078594208,0.6786713004112244
1660273501077024000,2.32602392578125,-4.185037612915039,-0.11484266817569733,0.6829473376274109
1660273501079024000,2.328024169921875,-4.185648441314697,-0.10690141469240189,0.6872233748435974
1660273501081025000,2.33002490234375,-4.1832051277160645,-0.09773843735456467,0.6939429044723511
1660273501083026000,2.33202587890625,-4.180761814117432,-0.09529497474431992,0.6982190012931824
1660273501085026800,2.33402685546875,-4.177096366882324,-0.08918632566928864,0.7055493593215942
1660273501087028000,2.336028076171875,-4.170988082885742,-0.08491026610136032,0.7110471725463867
1660273501089028000,2.338028076171875,-4.169155120849609,-0.08002334833145142,0.7122688889503479
1660273501091027700,2.34002783203125,-4.161824703216553,-0.07513642311096191,0.7183775305747986
1660273501093027600,2.342027587890625,-4.153883457183838,-0.06719517707824707,0.7220427393913269
1660273501095027700,2.34402783203125,-4.148386001586914,-0.0659734457731247,0.7257078886032104
1660273501097027800,2.34602783203125,-4.13739013671875,-0.056810468435287476,0.7287622094154358
1660273501099027700,2.34802783203125,-4.1245622634887695,-0.04886921867728233,0.7354817390441895
1660273501101026800,2.35002685546875,-4.061032295227051,-0.001832595793530345,0.7483099102973938
1660273501103026000,2.35202587890625,-4.052480220794678,0.00366519158706069,0.7507534027099609
1660273501105025000,2.35402490234375,-4.0408735275268555,0.00733038317412138,0.7531968355178833
1660273501107024400,2.3560244140625,-4.0408735275268555,0.00733038317412138,0.7531968355178833
1660273501109023700,2.358023681640625,-4.0408735275268555,0.00733038317412138,0.7531968355178833
1660273501111022800,2.36002294921875,-4.0408735275268555,0.00733038317412138,0.7531968355178833
1660273501113023000,2.36202294921875,-4.029267311096191,0.013439035043120384,0.7519751191139221
1660273501115022800,2.36402294921875,-4.010941028594971,0.024434609338641167,0.7513642311096191
1660273501117023000,2.36602294921875,-3.991393566131592,0.0354301854968071,0.750142514705658
1660273501119022800,2.36802294921875,-3.9791762828826904,0.039095375686883926,0.750142514705658
1660273501121023000,2.37002294921875,-3.953519821166992,0.0507018156349659,0.7470881938934326
1660273501123031000,2.372031005859375,-3.930306911468506,0.05864306539297104,0.7434229850769043
1660273501125031000,2.374031005859375,-3.9180896282196045,0.06352998316287994,0.740368664264679
1660273501127031000,2.376031005859375,-3.8906006813049316,0.07024950534105301,0.7312057018280029
1660273501129031000,2.378031005859375,-3.861279249191284,0.07757988572120667,0.7269296646118164
1660273501131030800,2.38003076171875,-3.847229242324829,0.08185594528913498,0.7238753437995911
1660273501133030700,2.38203076171875,-3.8172969818115234,0.08429940044879913,0.7165449261665344
1660273501135030500,2.384030517578125,-3.7861428260803223,0.08796459436416626,0.7043276429176331
1660273501137030000,2.38602978515625,-3.768427610397339,0.08918632566928864,0.6994407176971436
1660273501139029800,2.38802978515625,-3.7360517978668213,0.09346238523721695,0.6866125464439392
1660273501141027000,2.390027099609375,-3.6890151500701904,0.09407325088977814,0.6707300543785095
1660273501143027000,2.39202685546875,-3.6890151500701904,0.09407325088977814,0.6707300543785095
1660273501145027000,2.394027099609375,-3.656639337539673,0.09529497474431992,0.656069278717041
1660273501147027000,2.39602685546875,-3.623041868209839,0.09162978827953339,0.6444628238677979
1660273501149027600,2.398027587890625,-3.6083810329437256,0.09224065393209457,0.6340781450271606
1660273501151027500,2.40002734375,-3.570507287979126,0.09224065393209457,0.6194173693656921
1660273501153027600,2.402027587890625,-3.5387423038482666,0.08857546001672745,0.6029239892959595
1660273501155027200,2.404027099609375,-3.520416498184204,0.08552113175392151,0.5955936312675476
1660273501157027000,2.406027099609375,-3.4849863052368164,0.08429940044879913,0.5803219676017761
1660273501159027000,2.40802685546875,-3.4513885974884033,0.0806342139840126,0.5607742667198181
1660273501161027000,2.410027099609375,-3.4348952770233154,0.07696902006864548,0.5534439086914062
1660273501163027000,2.41202685546875,-3.4043519496917725,0.07330382615327835,0.5387831330299377
1660273501165027000,2.414027099609375,-3.3701436519622803,0.06902777403593063,0.5247332453727722
1660273501167027500,2.41602734375,-3.352428436279297,0.06536258012056351,0.5174028873443604
1660273501169027300,2.41802734375,-3.324939489364624,0.060475658625364304,0.5064072608947754
1660273501171027200,2.420027099609375,-3.29134202003479,0.059864792972803116,0.4954117238521576
1660273501173027300,2.42202734375,-3.277902841567993,0.056810468435287476,0.48869219422340393
1660273501175027200,2.424027099609375,-3.2455270290374756,0.05192354694008827,0.4764748811721802
1660273501177027300,2.42602734375,-3.2119295597076416,0.051312681287527084,0.4660901725292206
1660273501179027500,2.42802734375,-3.194214344024658,0.04764748737215996,0.46181413531303406
1660273501181026600,2.430026611328125,-3.1306843757629395,0.0403171069920063,0.44715335965156555
1660273501183025400,2.432025390625,-3.1306843757629395,0.0403171069920063,0.44715335965156555
1660273501185025500,2.434025634765625,-3.112358331680298,0.0403171069920063,0.4447098970413208
1660273501187025400,2.436025390625,-3.0775392055511475,0.03787364438176155,0.4398229718208313
1660273501189024800,2.438024658203125,-3.045774221420288,0.03848451003432274,0.4398229718208313
1660273501191024400,2.4400244140625,-3.0280590057373047,0.036041051149368286,0.4392121136188507
1660273501193024500,2.4420244140625,-2.995072364807129,0.03298672288656235,0.4355469346046448
1660273501195024100,2.444024169921875,-2.9633073806762695,0.03481931984424591,0.43676865100860596
1660273501197024300,2.446024169921875,-2.9468140602111816,0.03481931984424591,0.4386012554168701
1660273501199024400,2.4480244140625,-2.911994695663452,0.03237585723400116,0.43799036741256714
1660273501201025300,2.450025390625,-2.8820621967315674,0.02626720629632473,0.4398229718208313
1660273501203025000,2.45202490234375,-2.8649580478668213,0.02382374368607998,0.4398229718208313
1660273501205025000,2.45402490234375,-2.833193063735962,0.019547687843441963,0.44287729263305664
1660273501207025200,2.456025146484375,-2.800206184387207,0.012217304669320583,0.4447098970413208
1660273501209024800,2.458024658203125,-2.786156415939331,0.006719517521560192,0.4440990388393402
1660273501211025000,2.46002490234375,-2.7488934993743896,0.0012217304902151227,0.44287729263305664
1660273501213024800,2.462024658203125,-2.715906858444214,-0.004886921960860491,0.44104471802711487
1660273501215025200,2.464025146484375,-2.699413537979126,-0.006108652334660292,0.44104471802711487
1660273501217025000,2.46602490234375,-2.6652050018310547,-0.016493361443281174,0.4337143301963806
1660273501219025000,2.46802490234375,-2.6248879432678223,-0.021991148591041565,0.43127086758613586
1660273501221024000,2.47002392578125,-2.4856107234954834,-0.04948008432984352,0.4080579876899719
1660273501223023000,2.472023193359375,-2.4856107234954834,-0.04948008432984352,0.4080579876899719
1660273501225022200,2.474022216796875,-2.4856107234954834,-0.04948008432984352,0.4080579876899719
1660273501227021000,2.47602099609375,-2.4856107234954834,-0.04948008432984352,0.4080579876899719
1660273501229021200,2.478021240234375,-2.4642302989959717,-0.0507018156349659,0.40072759985923767
1660273501231021000,2.48002099609375,-2.4214699268341064,-0.056810468435287476,0.394618958234787
1660273501233020700,2.482020751953125,-2.397646188735962,-0.06230825558304787,0.39095374941825867
1660273501235020500,2.4840205078125,-2.353052854537964,-0.07147123664617538,0.38117989897727966
1660273501237020700,2.486020751953125,-2.305405378341675,-0.08246681094169617,0.36651915311813354
1660273501239021300,2.488021240234375,-2.2821924686431885,-0.08674286305904388,0.3604104816913605
1660273501241022200,2.490022216796875,-2.233323335647583,-0.09773843735456467,0.3500257730484009
1660273501243023000,2.492023193359375,-2.1813998222351074,-0.10995574295520782,0.3390302062034607
1660273501245023000,2.49402294921875,-2.1569652557373047,-0.11545353382825851,0.32986724376678467
1660273501247023000,2.496023193359375,-2.099543809890747,-0.12767083942890167,0.31520646810531616
1660273501249023700,2.498023681640625,-2.0421226024627686,-0.14294247329235077,0.3017674386501312
1660273501251024100,2.500024169921875,-2.012190103530884,-0.1472185254096985,0.2926044464111328
1660273501253024000,2.50202392578125,-1.9529361724853516,-0.16310101747512817,0.2791654169559479
1660273501255024400,2.5040244140625,-1.8955148458480835,-0.17470745742321014,0.2638937830924988
1660273501257024500,2.5060244140625,-1.86191725730896,-0.182648703455925,0.25595253705978394
1660273501259024400,2.5080244140625,-1.7989981174468994,-0.19975294172763824,0.24007004499435425
1660273501261023500,2.5100234375,-1.5766432285308838,-0.26083946228027344,0.18997909128665924
1660273501263022800,2.51202294921875,-1.5766432285308838,-0.26083946228027344,0.18997909128665924
1660273501265022000,2.51402197265625,-1.5766432285308838,-0.26083946228027344,0.18997909128665924
1660273501267021000,2.51602099609375,-1.541213035583496,-0.26939156651496887,0.1814269721508026
1660273501269021000,2.51802099609375,-1.541213035583496,-0.26939156651496887,0.1814269721508026
1660273501271020800,2.520020751953125,-1.4776830673217773,-0.28955012559890747,0.16982053220272064
1660273501273021000,2.52202099609375,-1.4110987186431885,-0.3078760802745819,0.15515977144241333
1660273501275020800,2.524020751953125,-1.377501130104065,-0.3170390725135803,0.14782938361167908
1660273501277021000,2.52602099609375,-1.3127493858337402,-0.33047810196876526,0.1362229436635971
1660273501279021000,2.52802099609375,-1.2486085891723633,-0.34697145223617554,0.12278391420841217
1660273501281021700,2.530021728515625,-1.2162326574325562,-0.35185837745666504,0.1160643994808197
1660273501283022600,2.532022705078125,-1.150259256362915,-0.36651915311813354,0.10384709388017654
1660273501285023500,2.5340234375,-1.086118459701538,-0.37751471996307373,0.08979719132184982
1660273501287024400,2.5360244140625,-1.0561859607696533,-0.3836233615875244,0.08429940044879913
1660273501289023500,2.5380234375,-0.9963212013244629,-0.39645153284072876,0.07391469180583954
1660273501291023000,2.540023193359375,-0.9334021210670471,-0.40072759985923767,0.06169738993048668
1660273501293023500,2.5420234375,-0.902247965335846,-0.4056145250797272,0.05375614017248154
1660273501295022600,2.544022705078125,-0.8381071090698242,-0.4129449129104614,0.04153883829712868
1660273501297022700,2.546022705078125,-0.7764097452163696,-0.4141666293144226,0.028099801391363144
1660273501299021800,2.548021728515625,-0.7440338730812073,-0.4147774875164032,0.018936822190880775
1660273501301021000,2.55002099609375,-0.4440990388393402,-0.38667771220207214,-0.06108652427792549
1660273501303020000,2.55202001953125,-0.4092797040939331,-0.38117989897727966,-0.07269296050071716
1660273501305019100,2.55401904296875,-0.4092797040939331,-0.38117989897727966,-0.07269296050071716
1660273501307018200,2.556018310546875,-0.3744603991508484,-0.3695734739303589,-0.08796459436416626
1660273501309017900,2.558017822265625,-0.3744603991508484,-0.3695734739303589,-0.08796459436416626
1660273501311017000,2.560016845703125,-0.3744603991508484,-0.3695734739303589,-0.08796459436416626
1660273501313017000,2.56201708984375,-0.3341432809829712,-0.36163222789764404,-0.09773843735456467
1660273501315017000,2.564016845703125,-0.26145032048225403,-0.3396410644054413,-0.12889257073402405
1660273501317017000,2.56601708984375,-0.22296582162380219,-0.3280346393585205,-0.14477506279945374
1660273501319017000,2.568016845703125,-0.1411098688840866,-0.304210901260376,-0.17837265133857727
1660273501321024000,2.57002392578125,-0.060475658625364304,-0.27550023794174194,-0.21930062770843506
1660273501323047200,2.572047119140625,-0.014049900695681572,-0.26145032048225403,-0.24007004499435425
1660273501325043500,2.57404345703125,0.07147123664617538,-0.23151792585849762,-0.28466320037841797
1660273501327041300,2.576041259765625,0.16798794269561768,-0.1973094791173935,-0.33597588539123535
1660273501329039400,2.578039306640625,0.2168571650981903,-0.1814269721508026,-0.3628539443016052
1660273501331038000,2.580037841796875,0.31459560990333557,-0.14477506279945374,-0.4190535545349121
1660273501333036800,2.582036865234375,0.4202753007411957,-0.10751228034496307,-0.48319441080093384
1660273501335035600,2.58403564453125,0.475253164768219,-0.08918632566928864,-0.5125159621238708
1660273501337034500,2.586034423828125,0.5864306092262268,-0.05192354694008827,-0.5803219676017761
1660273501339033600,2.58803369140625,0.7031059265136719,-0.012828170321881771,-0.646906316280365
1660273501341030400,2.590030517578125,0.8234463334083557,0.028099801391363144,-0.7165449261665344
1660273501343029500,2.592029541015625,0.8857545852661133,0.04948008432984352,-0.7507534027099609
1660273501345028900,2.59402880859375,1.0128145217895508,0.08918632566928864,-0.8228355050086975
1660273501347028200,2.5960283203125,1.074512004852295,0.10690141469240189,-0.856433093547821
1660273501349028000,2.598028076171875,1.2046263217926025,0.1417207419872284,-0.9279043078422546
1660273501351027000,2.60002685546875,1.3329079151153564,0.17592918872833252,-0.9957103729248047
1660273501353026600,2.602026611328125,1.397048830986023,0.1869247704744339,-1.0256427526474
1660273501355028500,2.604028564453125,1.5265522003173828,0.21441370248794556,-1.0891727209091187
1660273501357028000,2.606028076171875,1.652390480041504,0.2382374405860901,-1.1459832191467285
1660273501359027700,2.60802783203125,1.7146987915039062,0.24495697021484375,-1.1746938228607178
1660273501361027300,2.61002734375,1.8429805040359497,0.26511552929878235,-1.2302825450897217
1660273501363027000,2.61202685546875,1.9620991945266724,0.28038713335990906,-1.274264931678772
1660273501365026600,2.614026611328125,2.020742177963257,0.2871066629886627,-1.29381263256073
1660273501367026200,2.616026123046875,2.1374175548553467,0.3029891550540924,-1.3347405195236206
1660273501369025800,2.61802587890625,2.2485949993133545,0.3139847218990326,-1.3652838468551636
1660273501371025700,2.620025634765625,2.3035728931427,0.323147714138031,-1.3756685256958008
1660273501373025300,2.622025390625,2.406809091567993,0.33658674359321594,-1.397048830986023
1660273501375025000,2.62402490234375,2.506380081176758,0.35063666105270386,-1.4110987186431885
1660273501377024800,2.626024658203125,2.5534167289733887,0.36102136969566345,-1.4135421514511108
1660273501379024000,2.62802392578125,2.6426031589508057,0.3744603991508484,-1.4196507930755615
1660273501381023000,2.63002294921875,2.8014280796051025,0.40194934606552124,-1.4147639274597168
1660273501383021000,2.63202099609375,2.8014280796051025,0.40194934606552124,-1.4147639274597168
1660273501385021000,2.63402099609375,2.836247444152832,0.4105014503002167,-1.4092661142349243
1660273501387020800,2.636020751953125,2.900388240814209,0.42210787534713745,-1.3964380025863647
1660273501389020400,2.6380205078125,2.93154239654541,0.42699480056762695,-1.3897184133529663
1660273501391020500,2.6400205078125,2.986520290374756,0.4349360466003418,-1.3720033168792725
1660273501393020400,2.6420205078125,3.0360002517700195,0.4404338300228119,-1.3518447875976562
1660273501395020300,2.644020263671875,3.0579915046691895,0.44287729263305664,-1.3390166759490967
1660273501397020700,2.646020751953125,3.0940325260162354,0.44715335965156555,-1.3151928186416626
1660273501399020800,2.648020751953125,3.1312952041625977,0.44837507605552673,-1.289536476135254
1660273501401021700,2.650021728515625,3.143512487411499,0.44776421785354614,-1.273043155670166
1660273501403021800,2.652021728515625,3.1728341579437256,0.44837507605552673,-1.2443325519561768
1660273501405021700,2.654021728515625,3.1954360008239746,0.4440990388393402,-1.2119566202163696
1660273501407021600,2.656021484375,3.2082643508911133,0.44226643443107605,-1.1942415237426758
1660273501409021200,2.658021240234375,3.226590156555176,0.43615779280662537,-1.1594222784042358
1660273501411021600,2.660021484375,3.2418618202209473,0.43188172578811646,-1.1197160482406616
1660273501413021700,2.662021728515625,3.2504138946533203,0.42577308416366577,-1.0977247953414917
1660273501415020300,2.664020263671875,3.2620203495025635,0.4153883755207062,-1.0531316995620728
1660273501417020200,2.666020263671875,3.271183490753174,0.40256020426750183,-1.0103710889816284
1660273501419020300,2.668020263671875,3.2736268043518066,0.3927863538265228,-0.9841039180755615
1660273501421019400,2.670019287109375,3.297450542449951,0.3286454975605011,-0.8093964457511902
1660273501423018500,2.6720185546875,3.302337408065796,0.3139847218990326,-0.7825183868408203
1660273501425017600,2.674017578125,3.302337408065796,0.3139847218990326,-0.7825183868408203
1660273501427016700,2.6760166015625,3.302337408065796,0.3139847218990326,-0.7825183868408203
1660273501429016600,2.6780166015625,3.307835340499878,0.30482175946235657,-0.759916365146637
