timestamp,rel_time,acc_x,acc_y,acc_z,gyro_x,gyro_y,gyro_z,azimuth,pitch,roll
2.38E+12,0.915079,1.188118517,-9.266451968,-0.815701842,-0.410196,0.15057829,0.12858713,94.10382,113.57695,16.679712
2.38E+12,0.919933,1.186721051,-9.264355749,-0.841787899,-0.40958515,0.1563815,0.12950343,94.2406,113.336655,16.541885
2.38E+12,0.925007,1.185260247,-9.262164522,-0.869056266,-0.408058,0.17440203,0.14019357,94.38371,113.09575,16.404991
2.38E+12,0.930007,1.183820747,-9.260005252,-0.895926947,-0.41141775,0.17684549,0.15393804,94.520096,112.858795,16.26754
2.38E+12,0.934965,1.182393339,-9.25786412,-0.922571914,-0.4251622,0.20189096,0.16249016,94.66435,112.62636,16.133186
2.38E+12,0.939961,1.180954991,-9.255706578,-0.949421099,-0.43310347,0.23426682,0.16798794,94.80819,112.3951,15.998061
2.38E+12,0.944994,1.17950599,-9.253533057,-0.976469127,-0.45173484,0.25717425,0.17592919,94.95333,112.170204,15.862555
2.38E+12,0.94998,1.178070521,-9.251379833,-1.00326457,-0.4578435,0.30543262,0.18661933,95.11167,111.946396,15.730589
2.38E+12,0.955565,0.69929698,-9.137230726,-1.083060501,-0.4868596,0.3585779,0.18020524,95.273384,111.73633,15.604641
2.38E+12,0.959967,0.290722477,-9.039951158,-1.149210689,-0.5128214,0.40103304,0.16920967,95.44248,111.52917,15.481157
2.38E+12,0.965103,-0.049434176,-8.976125996,-1.188175548,-0.5345071,0.41386122,0.14630222,95.3696,111.392586,15.290138
2.38E+12,0.969912,-0.325714023,-8.931724012,-1.212843374,-0.5439755,0.41874814,0.109650314,95.305885,111.26726,15.112808
2.38E+12,0.974907,-0.647543172,-8.867190845,-1.278818732,-0.56046885,0.3885103,0.07513642,94.83192,111.06384,14.698596
2.38E+12,0.979988,-0.980359834,-8.798669916,-1.352234173,-0.58551437,0.3191771,0.0290161,94.35681,110.8825,14.305355
2.38E+12,0.984914,-1.357096922,-8.804173829,-1.541438438,-0.634689,0.19883664,-0.020158553,93.736465,110.66018,13.789758
2.38E+12,0.989908,-1.745657872,-8.818564764,-1.747711476,-0.6930266,0.08399397,-0.071776666,93.109856,110.4665,13.294707
2.38E+12,0.994976,-2.054464237,-8.894376643,-1.998241543,-0.74464476,-0.04153884,-0.13469578,92.232735,110.23859,12.636302
2.38E+12,0.999963,-2.347439469,-8.976775669,-2.250017071,-0.79137594,-0.1459968,-0.18295415,91.351524,110.047035,11.996379
2.38E+12,1.004911,-2.483874383,-9.015505578,-2.603560338,-0.82741696,-0.22876903,-0.23671028,90.098526,109.826035,11.1157875
2.38E+12,1.009932,-2.584691862,-9.044310658,-2.987626985,-0.8738427,-0.2761111,-0.28038713,88.8728,109.65499,10.265982
2.38E+12,1.014987,-2.363729624,-9.131765874,-3.290181099,-0.90469146,-0.2761111,-0.2968805,87.194855,109.46039,9.109352
2.38E+12,1.019869,-2.072953561,-9.230254555,-3.562197481,-0.9306532,-0.22693644,-0.29229903,85.60922,109.327644,8.006792
2.38E+12,1.025193,-1.675116596,-9.307872161,-3.494534236,-0.93828905,-0.12522738,-0.23579398,83.98906,109.272354,6.8304167
2.38E+12,1.029963,-1.301159275,-9.370949636,-3.354863424,-0.9831876,-0.040317107,-0.21868975,82.47913,109.285866,5.7237706
2.38E+12,1.034912,-0.912263027,-9.344491223,-3.141498581,-1.0097603,-0.009773844,-0.18875736,81.48019,109.42551,4.9372487
2.38E+12,1.039919,-0.518552394,-9.29167582,-2.906232501,-1.0534371,0.006719518,-0.15974127,80.55329,109.60212,4.185421
2.38E+12,1.044922,-0.143612315,-9.272557441,-2.643906273,-1.0705414,-0.003665192,-0.12003502,79.86343,109.788506,3.6265385
2.38E+12,1.04993,0.226410487,-9.263069981,-2.373504885,-1.0729848,-0.039095376,-0.08246681,79.20006,109.98937,3.079495
2.38E+12,1.054903,0.575448601,-9.367380783,-2.297349496,-1.054048,-0.112399206,-0.030543262,78.66913,110.170456,2.6664248
2.38E+12,1.059903,0.920414001,-9.509147782,-2.283172895,-1.0311406,-0.1414153,0.029626964,78.15882,110.35117,2.2542384
2.38E+12,1.065041,1.333385165,-9.656345245,-2.318650389,-0.98471475,-0.09468412,0.06291912,77.684105,110.47861,1.9210105
2.38E+12,1.069962,1.749341892,-9.79785601,-2.370109004,-0.93279123,0.05009095,0.048563786,77.23757,110.59706,1.6012456
2.38E+12,1.075038,2.198180952,-9.94520322,-2.283375654,-0.816116,0.1908954,0.014660766,76.8293,110.67656,1.3614054
2.38E+12,1.080072,2.659611252,-10.09246809,-2.082113453,-0.68600166,0.3051272,-0.000305433,76.45857,110.73537,1.1398118
2.38E+12,1.085045,3.015224923,-10.25450563,-1.855055511,-0.5696318,0.35705075,0.006414085,76.1422,110.769226,1.0290112
2.38E+12,1.090012,3.302218154,-10.42761286,-1.609061245,-0.47647488,0.3894266,0.016493361,75.85199,110.77069,0.93507904
2.38E+12,1.095089,3.466123625,-10.60506104,-1.407873042,-0.40530908,0.47067168,0.036651913,75.58638,110.70254,0.92206407
2.38E+12,1.099991,3.501496963,-10.77687429,-1.261326301,-0.3436117,0.627664,0.03940081,75.34746,110.61011,0.92363
2.38E+12,1.104963,3.377242753,-10.88576408,-1.111063584,-0.26450464,0.818254,0.038789943,75.1114,110.43554,0.9685192
2.38E+12,1.109974,3.158178462,-10.95719806,-0.958670983,-0.15607607,1.0164797,0.027794369,74.91479,110.236786,1.0316687
2.38E+12,1.115045,2.823212654,-10.94917006,-0.711275032,-0.058337633,1.1081096,0.04642576,74.72047,109.984535,1.0895302
2.38E+12,1.120001,2.428271319,-10.89341396,-0.413907435,0.0290161,1.2241739,0.059864793,74.57928,109.708694,1.1723199
2.38E+12,1.125073,1.938814321,-10.78399273,-0.190910576,0.06169739,1.2544118,0.093462385,74.37657,109.38794,1.1839746
2.38E+12,1.130046,1.39935282,-10.64013624,-0.029072126,0.08460484,1.2455542,0.13591751,74.19233,109.05044,1.1977711
2.38E+12,1.135005,0.801114483,-10.46961082,0.008428519,0.07880162,1.1972959,0.1826487,73.939354,108.65665,1.1055006
2.38E+12,1.140012,0.126703981,-10.26583205,-0.098312711,0.025350908,1.1383474,0.22235495,73.68166,108.27688,1.0061847
2.38E+12,1.144982,-0.52441477,-10.04523412,-0.307572787,-0.02565634,1.097114,0.26328292,73.33983,107.87192,0.7701987
2.38E+12,1.150001,-1.162058844,-9.802548755,-0.631153372,-0.079107046,1.071763,0.30909783,72.991516,107.49229,0.5269446
2.38E+12,1.155001,-1.773360315,-9.567775975,-0.944927003,-0.13408493,1.0797043,0.35888332,72.61839,107.161644,0.15929215
2.38E+12,1.160005,-2.357308319,-9.340953171,-1.248965982,-0.17898351,1.1133019,0.39675698,72.2546,106.856926,-0.20602457
2.38E+12,1.165378,-2.850729703,-9.170413333,-1.472235434,-0.21380283,1.1600331,0.42577308,71.931435,106.6513,-0.67043936
2.38E+12,1.170003,-3.166512771,-9.083157459,-1.58026654,-0.21685717,1.1844677,0.4251622,71.62305,106.46692,-1.1234621
2.38E+12,1.174946,-3.402735396,-9.018215485,-1.636400649,-0.2180789,1.1927143,0.40958515,71.3315,106.38028,-1.6710496
2.38E+12,1.180037,-3.441050122,-9.008636604,-1.574139119,-0.22235495,1.185384,0.37751472,71.05748,106.316284,-2.1990802
2.38E+12,1.184973,-3.355090688,-8.991164651,-1.521255594,-0.22999077,1.1826351,0.37140608,70.79188,106.309586,-2.7880447
2.38E+12,1.190054,-2.980179633,-8.954136616,-1.484227365,-0.2519819,1.2070698,0.39370266,70.55062,106.33147,-3.3596082
2.38E+12,1.194979,-2.593827308,-8.929474193,-1.444976515,-0.2751948,1.2534955,0.4166101,70.292534,106.36923,-3.9329257
2.38E+12,1.200001,-2.108805881,-8.948874934,-1.391624197,-0.29229903,1.2971723,0.43585235,70.06034,106.43408,-4.495107
2.38E+12,1.204995,-1.632576604,-8.972381509,-1.330164724,-0.33292156,1.320996,0.44532076,69.86738,106.50791,-4.9672594
2.38E+12,1.209987,-1.177905984,-9.010669335,-1.239230614,-0.36377025,1.35551,0.44806966,69.702324,106.598206,-5.4277787
2.38E+12,1.215047,-0.724347458,-9.041632953,-1.150323597,-0.38912117,1.3634512,0.4361578,69.57116,106.669754,-5.7779946
2.38E+12,1.219997,-0.30441018,-9.046405064,-1.073971317,-0.40653083,1.3961325,0.4334089,69.46368,106.75527,-6.119418
2.38E+12,1.225106,0.08777939,-9.03828693,-1.014069223,-0.41233405,1.4395039,0.44348818,69.37056,106.80272,-6.3660936
2.38E+12,1.230078,0.351259974,-8.99300115,-1.009952342,-0.45356745,1.5222762,0.44348818,69.29963,106.86555,-6.598562
2.38E+12,1.234991,0.611613979,-8.94825275,-1.005884313,-0.48930305,1.632232,0.4266894,69.25309,106.88692,-6.739496
2.38E+12,1.240006,0.790872907,-8.805784089,-0.965863783,-0.5186246,1.7434094,0.40225476,69.23059,106.916985,-6.868753
2.38E+12,1.244972,0.942450598,-8.666023615,-0.927441193,-0.54733527,1.8591684,0.38026363,69.239975,106.954765,-6.982513
2.38E+12,1.250002,0.972262447,-8.585761041,-0.915975099,-0.6059783,1.9911152,0.3381139,69.28601,106.98133,-7.01377
2.38E+12,1.255261,1.003431535,-8.501844365,-0.90398699,-0.6404922,2.1233675,0.3100141,69.36579,106.99674,-7.007403
2.38E+12,1.259991,1.031465342,-8.426368823,-0.893204759,-0.68508536,2.237294,0.27672195,69.47351,107.02331,-6.979082
2.38E+12,1.265157,1.062083237,-8.343936127,-0.881428647,-0.72143185,2.323426,0.25289822,69.60869,107.05363,-6.9378104
2.38E+12,1.269997,0.957534215,-8.432505009,-0.871476083,-0.73731434,2.3875668,0.22204952,69.76607,107.08464,-6.878886
2.38E+12,1.27512,0.836882418,-8.533118037,-0.860692597,-0.7483099,2.4361305,0.20219639,69.94172,107.121666,-6.811698
2.38E+12,1.280754,0.645532192,-8.653970886,-0.845586011,-0.7611381,2.4733934,0.18448131,70.13135,107.159874,-6.723063
2.38E+12,1.28499,0.501662906,-8.744835754,-0.834227917,-0.7648033,2.5137105,0.17715092,70.32739,107.1982,-6.6486683
2.38E+12,1.290031,-0.01864074,-8.98247964,-0.665632628,-0.77549344,2.5607471,0.15760323,70.53291,107.23785,-6.563653
2.38E+12,1.294982,-0.558405009,-9.226546737,-0.487275729,-0.81000733,2.5824327,0.15149458,70.74266,107.2851,-6.4802885
2.38E+12,1.300008,-0.801930847,-9.504647411,-0.258769299,-0.84482664,2.6209173,0.1423316,70.966095,107.33631,-6.416303
2.38E+12,1.304954,-1.00848613,-9.78161949,-0.028741809,-0.92057395,2.6444356,0.11881329,71.18939,107.405045,-6.3469334
2.38E+12,1.309976,-1.038328443,-10.11065822,0.229898318,-1.0076222,2.6508498,0.08582657,71.35165,107.48019,-6.394416
2.38E+12,1.315101,-1.043022104,-10.45329218,0.497434394,-1.0638218,2.588847,0.0720821,71.502686,107.56746,-6.442986
2.38E+12,1.320002,-0.924810479,-10.67861808,0.658135976,-1.0812315,2.4486532,0.043982297,71.55841,107.62618,-6.5442557
2.38E+12,1.324941,-0.776800196,-10.88160326,0.797688492,-1.0882565,2.2681427,0.001527163,71.587296,107.69576,-6.643195
2.38E+12,1.330087,-0.576215891,-11.01716907,0.889008285,-1.0528263,2.0818288,-0.02443461,71.4917,107.69982,-6.7709947
2.38E+12,1.335036,-0.348028218,-11.08977462,0.93568303,-1.0296134,1.8695531,-0.0421497,71.34315,107.70851,-6.901794
2.38E+12,1.339995,-0.23018104,-11.08221432,0.864099208,-0.98715824,1.6615535,-0.043676864,71.11547,107.6565,-7.0132227
2.38E+12,1.345008,-0.151554352,-11.04521326,0.748471731,-0.9279043,1.4883732,-0.043982297,70.845695,107.59599,-7.1301823
2.38E+12,1.350797,-0.253889797,-10.97920235,0.446095468,-0.86651236,1.3304645,-0.032375857,70.53575,107.501945,-7.216041
2.38E+12,1.355003,-0.387802158,-10.92406208,0.174332155,-0.7861836,1.2098186,-0.025350908,70.195816,107.390465,-7.3077297
2.38E+12,1.359974,-0.775100098,-10.98188953,-0.139954336,-0.6719518,1.1301007,-0.01740966,69.868324,107.27102,-7.3800883
2.38E+12,1.365093,-1.327065815,-11.12367859,-0.458980416,-0.5549711,1.144456,0.010995574,69.54232,107.1365,-7.4589596
2.38E+12,1.369999,-1.886163685,-11.28450567,-0.496480074,-0.4447099,1.2330315,0.03970624,69.29834,107.039734,-7.535827
2.38E+12,1.375031,-2.473852562,-11.46125456,-0.408105798,-0.3707952,1.3289373,0.0580322,69.06685,106.92724,-7.612929
2.38E+12,1.380072,-2.864047802,-11.63556357,-0.291004568,-0.33750305,1.3903292,0.055588737,68.8901,106.88071,-7.7654166
2.38E+12,1.385076,-3.054994105,-11.80586716,-0.146504721,-0.31764993,1.4150693,0.04184427,68.735756,106.82373,-7.9101872
2.38E+12,1.390023,-3.031012737,-11.97810822,-0.07970461,-0.2742785,1.3860532,0.026572637,68.51491,106.79322,-8.182079
2.38E+12,1.395009,-2.888737832,-12.15385958,-0.054597281,-0.23671028,1.3283265,0.03390302,68.304375,106.76838,-8.446352
2.38E+12,1.400006,-2.693892502,-12.33563628,-0.052955086,-0.21746802,1.235475,0.02443461,68.04714,106.732414,-8.733264
2.38E+12,1.405002,-2.403163304,-12.52772505,-0.094487834,-0.22724187,1.1209377,0.007635816,67.78034,106.703415,-9.013974
2.38E+12,1.409972,-2.084886489,-12.68765439,-0.156979265,-0.24923302,1.0424415,-0.004276057,67.51503,106.64867,-9.245318
2.38E+12,1.415071,-1.729174583,-12.82045348,-0.242350134,-0.28160888,0.9126327,-0.012217305,67.21317,106.60384,-9.474761
2.38E+12,1.420166,-1.431779269,-12.93484011,-0.314825878,-0.2941316,0.8081747,-0.035124753,66.92462,106.52714,-9.628803
2.38E+12,1.425,-1.210966299,-13.0240146,-0.370029112,-0.30695978,0.73761976,-0.051923547,66.61781,106.462425,-9.781884
2.38E+12,1.429997,-0.997105601,-13.10886531,-0.409130317,-0.2959642,0.7180721,-0.04337143,66.33793,106.36245,-9.853413
2.38E+12,1.435004,-0.822229304,-13.17381909,-0.399137394,-0.27855456,0.7275405,-0.051618114,66.05082,106.26145,-9.914925
2.38E+12,1.439958,-0.676133294,-13.2128929,-0.35234858,-0.24495697,0.7501425,-0.058337633,65.79178,106.13329,-9.922846
2.38E+12,1.44501,-0.57957155,-13.20369636,-0.232795953,-0.21013765,0.77732605,-0.063224554,65.54169,106.00301,-9.926834
2.38E+12,1.449974,-0.480521575,-13.18926531,-0.098209498,-0.15393804,0.81489426,-0.07360926,65.3083,105.83978,-9.893756
2.38E+12,1.454999,-0.366969314,-13.15747098,0.092558317,-0.0729984,0.8341365,-0.09560041,65.08101,105.66406,-9.855551
2.39E+12,1.459981,-0.277548968,-13.13420751,0.267678441,0.009773844,0.83199847,-0.12644911,64.84507,105.45151,-9.795279
2.39E+12,1.465083,-0.356285382,-13.17111544,0.34395435,0.10293079,0.8384125,-0.1600467,64.62059,105.21911,-9.727031
2.39E+12,1.469971,-0.431719249,-13.20647529,0.417030918,0.20830505,0.84391034,-0.19058995,64.36983,104.933754,-9.639418
2.39E+12,1.475,-0.509329092,-13.24285513,0.492215463,0.3118467,0.84849185,-0.21685717,64.124725,104.62951,-9.544286
2.39E+12,1.480151,-0.624287543,-13.30413911,0.525501201,0.4343252,0.83291477,-0.22632557,63.8833,104.30192,-9.444122
2.39E+12,1.485093,-0.890861184,-13.46878716,0.364772985,0.6038403,0.8002335,-0.21502456,63.643616,103.94901,-9.344249
2.39E+12,1.490239,-1.168438675,-13.64023169,0.197410095,0.8151997,0.7901542,-0.160963,63.384617,103.577065,-9.281899
2.39E+12,1.495022,-1.548931312,-13.64938141,-0.055098964,1.0668762,0.79137594,-0.10262536,63.12719,103.17715,-9.224844
2.39E+12,1.49995,-1.977067063,-13.61453349,-0.343841712,1.2990049,0.77213365,-0.014966198,62.87146,102.77039,-9.191976
2.39E+12,1.505012,-2.285975806,-13.15961923,-0.212237852,1.4950926,0.6918049,0.09162979,62.632553,102.40493,-9.222256
2.39E+12,1.509951,-2.562227198,-12.63520959,-0.001537674,1.6368134,0.6096435,0.15271631,62.39531,102.03798,-9.261914
2.39E+12,1.515056,-2.642340534,-11.89497909,0.412591206,1.700038,0.3903429,0.2910773,62.143063,101.79392,-9.417765
2.39E+12,1.519957,-2.675090909,-11.14172099,0.852381612,1.8078557,0.13805555,0.4550946,61.866398,101.56992,-9.595266
2.39E+12,1.525005,-2.515199782,-10.48769614,1.187986318,1.8897116,-0.07880162,0.6261369,61.497143,101.45847,-9.881992
2.39E+12,1.530091,-2.308293367,-9.857572261,1.498345866,2.0042489,-0.29168814,0.77182823,61.06936,101.40566,-10.203053
2.39E+12,1.535,-2.098790329,-9.52021208,1.757599455,2.194228,-0.48899764,0.870483,60.500645,101.43518,-10.600407
2.39E+12,1.539979,-1.883141389,-9.26535422,2.007556156,2.4352143,-0.6731735,0.9120218,59.890053,101.53182,-11.007888
2.39E+12,1.545008,-1.742466457,-9.549869357,2.029388672,2.683531,-0.81031275,0.9114109,59.224834,101.66582,-11.396647
2.39E+12,1.550008,-1.622236133,-9.970675248,1.992394756,2.9251282,-0.84635377,0.86559606,58.547764,101.85824,-11.764322
2.39E+12,1.555002,-1.646740499,-10.00056735,1.868417802,3.1655037,-0.7458665,0.795652,57.906612,102.07526,-12.0687895
2.39E+12,1.560013,-1.725131905,-9.885285938,1.71163499,3.383888,-0.52656585,0.7012733,57.2979,77.643936,-12.333881
2.39E+12,1.565083,-1.745902286,-9.652010698,1.806487294,3.5665367,-0.21777347,0.61727935,56.701084,77.309555,-12.546319
2.39E+12,1.570005,-1.736029628,-9.365703283,2.028622324,3.6285396,0.08552113,0.5830709,56.17713,76.90593,-12.729922
2.39E+12,1.574999,-1.628577408,-9.352397074,2.123683828,3.6508362,0.34697145,0.6084218,55.786854,76.417274,-12.916585
2.39E+12,1.580105,-1.483291206,-9.439569238,2.173496196,3.653585,0.5687156,0.7272351,55.476463,75.85274,-13.113112
2.39E+12,1.585066,-1.332529096,-9.781504873,2.0600361,3.6972618,0.8381071,0.88270026,55.25768,75.198395,-13.330618
2.39E+12,1.590022,-1.167367809,-10.51293321,1.701399974,3.7100902,1.1914927,1.0296134,55.12456,74.482834,-13.58052
2.39E+12,1.594979,-1.04153699,-11.17916177,1.43543243,3.6566393,1.5558738,1.1010846,55.051094,73.73979,-13.830155
2.39E+12,1.600008,-0.98235505,-11.74139012,1.326932251,3.4620788,1.7644843,1.0891727,55.02935,72.98693,-14.097708
2.39E+12,1.605822,-0.913935127,-12.3913793,1.201495774,3.143818,1.7745636,1.02717,55.163624,72.3132,-14.334684
2.39E+12,1.609979,-0.865014999,-12.85612045,1.111808908,2.792876,1.6588045,0.9993755,55.314636,71.672134,-14.577329
2.39E+12,1.615076,-0.72336789,-13.15166871,1.023707411,2.629164,1.459968,0.9599747,55.463486,71.06386,-14.7983265
2.39E+12,1.620002,-0.497220194,-13.13753468,0.962459048,2.3521366,1.1878275,0.92485,55.554665,70.5475,-14.997285
2.39E+12,1.62497,-0.329566024,-13.11515878,1.08165733,2.1887302,0.82253003,0.9300423,55.598812,70.11746,-15.124015
2.39E+12,1.630263,-0.227270157,-13.08105998,1.437257229,2.0754147,0.2574797,0.98440933,55.50379,69.729324,-15.222064
2.39E+12,1.634979,-0.252649268,-13.13961527,1.757850175,1.9608774,-0.4465425,1.0503827,55.292217,69.38257,-15.265053
2.39E+12,1.640013,-0.468034562,-13.34583557,2.106132872,1.8524488,-1.1838568,1.1976013,54.899338,69.02987,-15.301669
2.39E+12,1.644955,-0.840613974,-13.74608263,2.237956759,1.7843374,-1.8664987,1.4584408,54.274376,68.63272,-15.311951
2.39E+12,1.650007,-1.667903795,-14.70323799,1.790642966,1.8958203,-2.149024,1.8674151,53.534645,68.163246,-15.374424
2.39E+12,1.654949,-2.445948463,-15.66572271,1.817742125,2.307849,-1.9251418,2.2962425,52.71097,67.54632,-15.517993
2.39E+12,1.659972,-3.144670212,-16.72113435,3.215185623,2.9272664,-1.5497651,2.6978865,51.823833,66.79475,-15.746993
2.39E+12,1.665078,-3.558339182,-17.61863936,4.340822638,3.338684,-1.5845845,2.9110782,50.984562,65.96719,-16.147316
2.39E+12,1.670078,-3.297709208,-18.10394998,4.781197356,3.5527923,-1.8564194,2.7620273,50.182198,65.06311,-16.546019
2.39E+12,1.675911,-2.746613774,-18.58745744,4.956857436,3.6312885,-2.0818288,2.3264804,49.302242,64.02644,-16.914274
2.39E+12,1.680017,-1.945567804,-18.78959107,4.515159323,3.6135733,-2.3112087,1.9172006,48.364536,63.012707,-17.19589
2.39E+12,1.685082,-0.955610589,-18.93486328,3.940388109,3.4697146,-2.3890939,1.6316211,47.40744,62.088993,-17.290434
2.39E+12,1.690001,0.026747556,-17.87770629,3.037815394,3.335935,-2.3356433,1.4746287,46.468143,61.23238,-17.28734
2.39E+12,1.695014,0.902391642,-16.78126526,2.271512718,3.3301318,-2.2159138,1.3842206,45.5745,60.528923,-17.093618
2.39E+12,1.700005,1.186610876,-15.60028485,2.227409758,3.4290922,-2.0112739,1.3045027,44.749134,59.85793,-16.877195
2.39E+12,1.705007,1.328350449,-14.54609369,2.317923196,3.5259142,-1.9498819,1.2330315,43.94321,59.2529,-16.569862
2.39E+12,1.709996,0.973854549,-13.94299002,2.874988311,3.530801,-1.9339994,1.2092078,43.192772,58.652695,-16.270576
2.39E+12,1.715129,0.574519086,-13.39718842,3.482150257,3.5005634,-1.9740111,1.1951579,42.429283,57.993713,-15.945085
2.39E+12,1.720185,0.012274208,-13.22419002,4.246226565,3.4019086,-1.9410243,1.208597,41.696316,57.354156,-15.6256275
2.39E+12,1.724998,-0.52684153,-13.11447079,4.942606796,3.2647693,-1.998751,1.2547172,40.904922,56.626198,-15.336716
2.39E+12,1.73043,-1.163186648,-13.3844353,5.506639933,3.1355712,-2.1615467,1.2819008,40.105396,55.930344,-15.02739
2.39E+12,1.735359,-1.732262789,-13.61083962,6.019172531,3.0338624,-2.2809708,1.2241739,39.29568,55.16959,-14.764627
2.39E+12,1.740021,-2.105520926,-13.45793889,6.518349043,2.9382617,-2.3377812,1.1224649,38.4761,54.453545,-14.475552
2.39E+12,1.745488,-2.550151831,-13.25550774,7.062471161,2.7864618,-2.5274549,1.0748174,37.616623,53.729736,-14.22198
2.39E+12,1.74999,-2.983744426,-12.86342939,7.108598286,2.5744915,-2.7904325,1.0326678,36.755535,53.071896,-13.918068
2.39E+12,1.755005,-3.477286233,-12.35673127,7.06066386,2.3240368,-3.0066788,0.9465357,35.875404,52.407394,-13.617981
2.39E+12,1.760011,-4.047962107,-11.33328794,6.277752842,2.0592268,-3.1465669,0.82619524,34.98082,51.824898,-13.26499
2.39E+12,1.764991,-4.580750264,-10.34842981,5.552275518,1.7626517,-3.1422908,0.68936145,34.11981,51.28434,-12.963818
2.39E+12,1.770029,-4.73314147,-9.720393055,5.40912042,1.4569136,-3.2791247,0.6178902,33.218693,50.834957,-12.599175
2.39E+12,1.775126,-4.868678938,-9.0822765,5.252243786,1.1905763,-3.5558467,0.5015204,32.390133,50.446312,-12.328971
2.39E+12,1.780005,-4.141869236,-8.346227753,4.548531817,1.0488557,-3.6829066,0.3454443,31.597317,50.12568,-12.0328455
2.39E+12,1.800011,-1.161636626,-5.328111081,1.663009855,0.5934556,-2.8249464,0.26450464,28.704218,49.262936,-11.064931
2.39E+12,1.804973,-0.422462668,-4.579540906,0.947326561,0.37965274,-2.6340508,0.14966199,28.071236,49.18952,-10.725968
2.39E+12,1.809973,0.679711163,-4.124393198,0.766687028,0.2761111,-2.243097,0.11362094,27.558537,49.14067,-10.482566
2.39E+12,1.815011,1.820975987,-3.691499738,0.631134501,0.04734206,-1.8637499,0.0842994,27.109684,49.19614,-10.252269
2.39E+12,1.820003,2.724759138,-3.261516154,0.550916133,-0.20066923,-1.5460999,0.10598512,26.671175,49.293224,-9.928344
2.39E+12,1.824951,3.533812947,-2.834924057,0.492075847,-0.44318274,-1.320996,0.1563815,26.298256,49.453835,-9.659036
2.39E+12,1.830028,3.928725364,-2.479586285,0.362699831,-0.6536258,-1.1377366,0.20616703,25.888983,49.668232,-9.21469
2.39E+12,1.834948,4.193000811,-2.157650957,0.218549641,-0.86926126,-0.958753,0.21777347,25.527233,49.950325,-8.813037
2.39E+12,1.840012,4.219171483,-1.820962585,0.051410843,-1.0690142,-0.8078693,0.19608775,25.124725,50.248528,-8.301319
2.39E+12,1.845006,4.191013477,-1.487758112,-0.117537897,-1.241889,-0.66523224,0.16707164,24.760458,50.59554,-7.820508
2.39E+12,1.850147,4.07888066,-1.193200875,-0.373462745,-1.3939945,-0.47769663,0.11362094,24.41888,50.95923,-7.3305326
2.39E+12,1.85499,3.953023891,-0.927503625,-0.634498591,-1.5332718,-0.2782491,0.040927973,24.121588,51.36433,-6.8566856
2.39E+12,1.860011,3.619613856,-0.680626899,-0.992664645,-1.6172657,-0.047036625,-0.061391957,23.87449,51.747524,-6.4358773
2.39E+12,1.865064,3.231951556,-0.439519845,-1.375599358,-1.6450601,0.17715092,-0.21471913,23.69321,52.152016,-6.020428
2.39E+12,1.87,3.076793708,-0.121898846,-1.758624299,-1.5964963,0.5448918,-0.30970868,23.59693,52.513405,-5.7210045
2.39E+12,1.874989,2.991185776,0.225288515,-2.148615611,-1.5555683,1.0677924,-0.30573806,23.596508,52.878616,-5.4741645
2.39E+12,1.880013,3.12996378,0.863957369,-2.1144642,-1.6258179,1.4330899,-0.26816985,23.704258,53.312786,-5.326838
2.39E+12,1.885029,3.347261459,1.602769333,-1.930968401,-1.6404786,1.8329011,-0.28496864,23.9485,53.716698,-5.2620325
2.39E+12,1.890011,3.131389743,2.046505485,-1.899260416,-1.6762142,2.2595906,-0.2782491,24.303225,54.219955,-5.2740173
2.39E+12,1.895013,2.775310158,2.398396032,-1.916017138,-1.7296649,2.645352,-0.24495697,24.742235,54.730812,-5.3448005
2.39E+12,1.900019,2.456807292,2.778002974,-1.814103057,-1.7742581,3.0231721,-0.17592919,25.265738,55.213917,-5.4107904
2.39E+12,1.905015,2.181887182,3.187971309,-1.577768285,-1.8576412,3.2085698,-0.061391957,25.826262,55.72109,-5.5213795
2.39E+12,1.910007,1.881458663,3.204477281,-1.282084299,-1.9077321,3.449556,0.010690142,26.524103,56.211266,-5.785112
2.39E+12,1.915078,1.548297252,2.793730236,-0.916975873,-1.9862283,3.4956763,0.12767084,27.200674,56.727478,-6.0799203
2.39E+12,1.91998,1.249583119,2.275947543,-0.51547853,-2.0228803,3.375336,0.17165314,27.910986,57.184486,-6.432277
2.39E+12,1.924994,0.987319332,1.522535339,-0.014793177,-2.0234911,3.080288,0.0983493,28.595697,57.655178,-6.761158
2.39E+12,1.930044,0.717122964,0.822694771,0.547622577,-1.9559906,2.649628,-0.05375614,29.243526,58.097668,-7.1009994
2.39E+12,1.935008,0.440186075,0.245351766,1.209454827,-1.8069394,2.1261165,-0.21868975,29.812126,58.523327,-7.358642
2.39E+12,1.939974,0.074031311,-0.394165221,1.986178693,-1.5555683,1.5778649,-0.3200934,30.290941,58.89634,-7.5566826
2.39E+12,1.945005,-0.497932451,-1.181787432,3.031653488,-1.2541064,1.0424415,-0.34574974,30.656256,59.21892,-7.656116
2.39E+12,1.950002,-1.199784654,-2.14708286,4.498100877,-0.8903361,0.48380527,-0.2883284,30.851383,59.34483,-7.7335544
2.39E+12,1.955003,-2.286867159,-3.639437319,7.196735369,-0.41263947,-0.24617869,-0.10629055,30.853432,59.345085,-7.7352433
2.39E+12,1.960025,-3.473814173,-5.123816432,8.511141385,0.29810223,-1.3057245,0.24373524,30.564705,58.992054,-7.7902093
2.39E+12,1.965741,-5.145918506,-6.765333671,5.304575308,1.3090842,-1.6844609,0.82741696,30.203207,58.394367,-7.9370995
2.39E+12,1.969965,-6.336710097,-7.836560268,3.099632967,1.9599612,-0.33292156,1.4355333,29.916906,57.352215,-8.411333
2.39E+12,1.975024,-7.333786222,-7.762884734,2.033792805,2.0781636,1.8726074,1.7449366,29.699926,56.19065,-9.020562
2.39E+12,1.980015,-8.061425638,-7.477094832,0.800772126,2.1731532,3.6529741,1.700038,29.92053,55.386505,-10.308932
2.39E+12,1.984979,-7.102345561,-5.792224183,-1.61852918,1.9013181,4.7128253,1.6658295,30.455114,54.61822,-11.869358
2.39E+12,1.990004,-6.131479851,-4.08664904,-4.067560014,1.4792101,5.6837955,1.9098701,31.48223,53.90224,-13.992
2.39E+12,1.995008,-5.195044313,-4.577977767,-4.510791657,1.0708468,6.404006,2.1539109,32.730103,53.217678,-16.18369
2.39E+12,2.000161,-4.27140339,-5.438987573,-4.535128223,0.41783184,6.505715,2.0131063,34.113388,52.68375,-18.338
2.39E+12,2.004995,-3.730284198,-7.783837033,-2.234271902,-0.4541783,6.3026023,1.8249599,35.693043,52.40294,-20.57573
2.39E+12,2.010367,-3.107650853,-10.37989634,0.304817003,-0.8588765,5.0805664,0.8231409,37.304028,52.49965,-22.159468
2.39E+12,2.015121,-2.056440361,-12.44799207,2.132635981,-1.5693128,4.607451,0.31642818,39.081978,52.755512,-23.853428
2.39E+12,2.019988,-0.980243165,-14.56524532,4.003901223,-1.7403551,3.4804046,-0.77579886,40.417114,53.343315,-24.357565
2.39E+12,2.024993,0.667956902,-15.8473692,4.057039103,-2.3961189,2.141999,-1.6716328,41.60967,54.216465,-24.649748
2.39E+12,2.03007,2.443590815,-16.97646651,3.752510878,-3.2238414,0.77366084,-1.9926424,42.54157,55.22851,-24.63593
2.39E+12,2.035805,3.569780415,-16.21055945,2.296794691,-3.7113118,-0.25686884,-1.779756,42.944164,56.510178,-23.890867
2.39E+12,2.039956,4.235354842,-15.30908493,1.054108365,-3.6190712,-0.99387777,-1.260215,43.02521,57.79412,-23.049364
2.39E+12,2.045009,3.396788625,-14.16179521,-0.585599428,-3.0363057,-1.4944818,-0.8014552,42.801617,59.3115,-21.83368
2.39E+12,2.049952,2.341731022,-13.03237261,-2.207692366,-2.389705,-1.7611245,-0.5748242,42.39185,60.67692,-20.700657
2.39E+12,2.055013,1.493169409,-12.41795064,-3.931940193,-1.8390098,-1.6927075,-0.56291234,42.00529,61.982803,-19.64053
2.39E+12,2.05997,0.706624769,-11.92043735,-5.632961336,-1.4978416,-1.3011429,-0.72234815,41.62039,63.153687,-18.6352
2.39E+12,2.065101,0.50322789,-11.70606899,-6.322956206,-1.3295482,-0.7648033,-0.999681,41.529415,64.23581,-17.932243
2.39E+12,2.070101,0.42020799,-11.55386614,-6.793402362,-1.3051136,-0.2556471,-1.3423764,41.54723,65.30372,-17.212942
2.39E+12,2.075029,0.44318563,-11.77348392,-6.40719714,-1.3723087,0.09682214,-1.7867808,41.90931,66.470604,-16.648825
2.39E+12,2.080053,0.49670495,-12.10351946,-5.769425022,-1.4144585,0.2660318,-2.3142629,42.371365,67.69097,-15.99599
2.39E+12,2.085026,0.702521722,-12.73137079,-4.720398705,-1.3542882,0.33505958,-2.9064968,42.962376,69.010666,-15.261723
2.39E+12,2.090022,1.005773004,-13.55224072,-3.402824442,-1.1661417,0.45845437,-3.5289686,43.616608,70.4059,-14.387475
2.39E+12,2.095014,1.496556751,-14.34304049,-1.372018116,-0.89888823,0.6575964,-4.099211,44.240627,71.83181,-13.325231
2.39E+12,2.100018,2.041781005,-15.12739852,0.866270934,-0.6585127,0.6789767,-4.5032988,44.83323,73.29435,-12.139251
2.39E+12,2.105601,3.118282568,-16.08807551,4.252454115,-0.9737192,0.19120082,-4.6734247,45.203506,74.79913,-10.753478
2.39E+12,2.110036,4.067285189,-16.86836641,7.120550822,-1.9382755,0.083383106,-4.6783113,45.668602,76.39163,-9.346652
2.39E+12,2.115063,5.006021737,-17.51725991,7.871357007,-2.4291058,-0.087964594,-4.4333544,45.765846,77.715576,-7.821092
2.39E+12,2.120094,5.903606676,-18.09460036,7.857825585,-3.2467487,-0.40225476,-3.907705,45.76789,79.19153,-6.401968
2.39E+12,2.125033,5.821291658,-18.49998901,6.878052983,-3.8325686,-0.657291,-3.2565227,45.49545,80.27806,-4.9549346
2.39E+12,2.130104,5.169021853,-18.82110711,5.302570822,-4.2574253,-0.7583892,-2.561358,45.183952,81.33172,-3.7218926
2.39E+12,2.13501,3.970798594,-19.01972514,3.704809506,-4.5451427,-0.6713409,-1.8075503,44.818317,82.40227,-2.6006591
2.39E+12,2.140022,2.498792126,-19.17366054,2.04038383,-4.64899,-0.35643986,-0.97219205,44.48519,83.38102,-1.7556847
2.39E+12,2.145024,-0.541947078,-19.29156775,1.260444914,-4.560109,0.007330383,-0.112399206,44.26355,84.46688,-1.2342542
2.39E+12,2.150018,-4.269300215,-19.39357041,0.869434152,-4.4321327,0.25503623,0.63132924,44.086414,85.49441,-0.946591
2.39E+12,2.154974,-6.780890654,-19.45899678,0.906277769,-4.351193,0.35643986,1.1139128,44.043743,86.61358,-1.0116856
2.39E+12,2.160065,-7.793616253,-19.47895185,1.504933528,-4.3133197,0.52626044,1.1142182,44.088234,87.59761,-1.1555293
2.39E+12,2.165297,-8.043315139,-19.24658754,2.38335036,-4.250095,0.61361414,0.7031059,44.148865,87.91162,-1.8274605
2.39E+12,2.16996,-7.614231913,-18.83119732,3.383023918,-4.2143593,0.4260785,0.07788532,44.177162,92.41154,-2.4108183
2.39E+12,2.174928,-6.621740249,-18.125445,4.498126437,-4.07722,0.033292156,-0.58123827,44.138973,93.1318,-2.977012
2.39E+12,2.179974,-5.105080618,-17.15857478,5.678277207,-3.6609154,-0.5876524,-1.0354166,43.978477,93.836945,-3.4031327
2.39E+12,2.18491,-3.702647312,-16.25124929,6.149906469,-3.0949488,-1.3744467,-1.244027,43.625942,94.35655,-3.6772833
2.39E+12,2.189977,-2.354456025,-15.36319196,5.864623751,-2.722321,-2.1401663,-1.3356569,43.101883,94.7727,-3.8532844
2.39E+12,2.19494,-1.153780873,-14.48571636,5.473257325,-2.528066,-2.3762658,-1.4391985,42.4934,94.880844,-3.8239825
2.39E+12,2.19994,-0.149612861,-13.5885916,4.887067683,-2.339614,-2.460565,-1.5018122,41.717632,94.91227,-3.7840335
2.39E+12,2.204908,0.384658516,-12.71707878,4.496034914,-2.2403483,-2.094046,-1.5916094,41.038612,94.812225,-3.539703
2.39E+12,2.209929,0.427850062,-11.85756683,4.305992071,-2.03693,-1.5060883,-1.5720617,40.407326,94.67515,-3.3081546
2.39E+12,2.215042,0.386576268,-11.03005053,4.192767663,-1.8637499,-0.72601336,-1.4269812,39.966045,94.52648,-2.9653988
2.39E+12,2.219921,0.133951663,-10.3598222,4.285568741,-1.8329011,0.23854288,-1.2657127,39.75004,94.39551,-2.6256464
2.39E+12,2.224868,-0.058563513,-9.664701308,4.13826453,-1.990199,1.070236,-1.1239921,39.720966,94.33315,-2.3229072
2.39E+12,2.22996,-0.173248712,-8.928805019,3.669966588,-2.16399,1.5442673,-1.0687088,39.865147,94.30022,-2.0368207
2.39E+12,2.234858,-0.333708741,-8.100365177,3.054634679,-2.175902,1.8081611,-1.0473285,40.17223,94.289154,-1.8338808
2.39E+12,2.239913,-0.576886638,-7.058829307,2.164511798,-2.032654,2.0039434,-1.0152581,40.590065,94.29829,-1.648707
2.39E+12,2.244904,-0.848520821,-6.041634285,1.377967714,-1.8197676,2.207667,-0.9419542,41.077347,94.3684,-1.4981438
2.39E+12,2.249941,-1.200002755,-5.04242152,0.810575501,-1.6261233,2.4190264,-0.86315256,41.61614,94.41128,-1.3607308
2.39E+12,2.254858,-1.497751319,-4.109648003,0.617105091,-1.4743233,2.5491407,-0.81183994,42.194675,94.56015,-1.248449
2.39E+12,2.259946,-1.724717396,-3.22069733,1.061580462,-1.3295482,2.4791965,-0.8344419,42.76968,94.659,-1.143644
2.39E+12,2.265067,-1.967598295,-2.392489443,1.733958019,-1.1936307,2.129171,-0.8756753,43.28708,94.79898,-1.116822
2.39E+12,2.26999,-2.228881454,-1.724289852,2.813357279,-1.0173961,1.5183055,-0.8729264,43.704792,94.887886,-1.1106735
2.39E+12,2.274957,-2.528610216,-1.101951593,3.841117394,-0.77854776,0.6988298,-0.84757555,43.97664,94.93843,-1.0702044
2.39E+12,2.280001,-3.105552324,-0.861213149,4.422210118,-0.48075095,-0.20341812,-0.8185594,44.048794,94.920784,-1.0537579
2.39E+12,2.284944,-3.670941863,-0.625295202,4.991667163,-0.1518,-0.95630956,-0.7632761,43.945984,94.74586,-1.0266391
2.39E+12,2.290018,-4.369840137,-0.504381078,4.462461156,0.17195857,-1.3793337,-0.6826419,43.683064,94.4872,-1.0314006
2.39E+12,2.294987,-5.085000536,-0.417402123,3.655489804,0.464563,-1.4450017,-0.5369505,43.31252,94.15016,-1.0812045
2.39E+12,2.299996,-5.359902511,-0.177046456,2.606069328,0.743423,-1.2855659,-0.42913285,42.875626,93.6814,-1.2354412
2.39E+12,2.304939,-5.53905286,0.091679254,1.521737581,0.8564331,-1.0097603,-0.17440203,42.461514,93.2396,-1.4731627
2.39E+12,2.31,-5.266599573,0.274732196,0.746505607,1.0320568,-0.8491027,0.089491755,42.072994,92.97283,-1.8560153
2.39E+12,2.315,-4.892541318,0.434391265,0.057690755,1.1157454,-0.9034697,0.3481932,41.70655,92.89744,-2.3113396
2.39E+12,2.319993,-4.382386345,0.685020934,-0.200687487,1.1438452,-1.1969905,0.56230146,41.340984,93.1528,-2.8707886
2.39E+12,2.324995,-3.818404726,0.971417847,-0.293215718,1.1462886,-1.6881261,0.77549344,40.90681,93.60563,-3.508044
2.39E+12,2.330013,-3.2681432,1.262877905,-0.428988631,1.1377366,-2.2122486,0.97402465,40.399117,94.17705,-4.151671
2.39E+12,2.334994,-2.734657986,1.555586587,-0.598948524,1.0821478,-2.615725,1.1273518,39.788807,94.846634,-4.845885
2.39E+12,2.33999,-2.345609666,1.845136612,-0.995295403,1.0338894,-2.8081474,1.2336423,39.09567,84.509865,-5.482747
2.39E+12,2.344999,-2.088123122,2.131772554,-1.597716683,1.0332786,-2.6331346,1.3057245,38.394787,83.810616,-6.154088
2.39E+12,2.35,-1.862104869,2.198016669,-2.132118693,1.2247849,-2.0662518,1.2831224,37.75889,83.17759,-6.741596
2.39E+12,2.354998,-1.661464832,2.085462485,-2.611697258,1.6811012,-1.2910637,1.108415,37.2368,82.53855,-7.3091054
2.39E+12,2.360545,-0.798520062,1.410476835,-1.905918994,2.3600779,-0.6084218,0.8891144,36.884678,81.924805,-7.834355
2.39E+12,2.365065,0.204623531,0.602750826,-0.750783963,3.0100386,-0.20586158,0.68783426,36.68109,81.3071,-8.320633
2.39E+12,2.369995,1.426483287,-0.101215211,1.220878579,3.4376442,-0.2312125,0.5537493,36.582893,80.71989,-8.740755
2.39E+12,2.374995,2.748743703,-0.700065046,3.683349199,3.559512,-0.6927212,0.50701815,36.478546,80.10781,-9.127282
2.39E+12,2.380008,3.674691623,-1.283743406,4.994856184,3.4348953,-1.314582,0.49357912,36.23312,79.51492,-9.268055
2.39E+12,2.385002,4.334758656,-1.854229998,5.541768895,3.2366695,-1.9040669,0.4529566,35.858253,78.878365,-9.358765
2.39E+12,2.390021,4.442996449,-2.45934082,4.986888574,3.1138856,-2.3823745,0.36682457,35.139183,78.2306,-9.029981
2.39E+12,2.395058,4.141535655,-3.090089641,3.614082143,3.114802,-2.572659,0.28191432,34.337086,77.462715,-8.652017
2.39E+12,2.399997,3.702214921,-3.793373112,1.116590729,3.218038,-2.7818804,0.258396,33.349495,76.59921,-8.053975
2.39E+12,2.404998,3.111436854,-4.591599863,-2.581409411,3.2818735,-2.7207937,0.24251351,32.401047,75.63143,-7.407572
2.39E+12,2.410017,2.568143405,-5.500796018,-4.940454126,3.4214563,-2.3606887,0.3145956,31.591816,74.73841,-6.8445444
2.39E+12,2.415075,2.105107914,-6.601127916,-5.015137219,3.556152,-1.9614882,0.49877146,30.80996,73.772514,-6.29065
2.39E+12,2.419999,1.545616495,-8.218381164,-4.870576991,3.73819,-1.7095064,0.7910705,30.278135,73.376305,-6.0240884
2.39E+12,2.424996,0.83177605,-10.59318352,-4.432008273,3.9938369,-1.7461584,1.1658363,29.753103,72.895905,-5.8333845
2.39E+12,2.430482,0.070340886,-12.93664686,-4.127903895,4.2943826,-2.0045543,1.5995506,29.234995,72.364296,-5.823105
2.39E+12,2.435002,-0.532450504,-14.57640814,-4.073104716,4.5695777,-2.3005185,2.0448713,28.663803,71.739624,-5.906003
2.39E+12,2.439941,-1.106689745,-16.09586977,-3.781010627,4.8065934,-2.3906212,2.4544566,28.078127,71.02407,-6.205431
2.39E+12,2.444977,-1.501297731,-17.02945482,-2.958108629,5.0081787,-2.132225,2.6731462,27.486763,70.22386,-6.56675
2.39E+12,2.449975,-1.630440974,-17.81345111,-2.229141015,5.1810536,-1.4266758,2.5396724,27.038227,69.40921,-7.0844655
2.39E+12,2.455,-1.171570361,-18.28198154,-1.69298688,5.163644,-0.41080686,2.1664336,26.750587,68.59025,-7.630814
2.39E+12,2.459984,-0.713701593,-18.66732335,-1.168849848,4.9260173,0.5290093,1.743104,26.640018,67.70893,-8.208325
2.39E+12,2.465061,-0.241342971,-18.88775807,-0.651504656,4.7061057,1.4465289,1.3213016,26.833303,66.87075,-8.767248
2.39E+12,2.470066,0.219055655,-19.08482379,-0.167490419,4.5426993,2.2088888,0.8762862,27.216183,66.09986,-9.161461
2.39E+12,2.474997,0.647907937,-19.18378955,0.187137439,4.4144177,2.8255572,0.3475823,27.854889,65.43729,-9.499704
2.39E+12,2.480007,1.0836309,-19.28434084,0.547446822,4.21833,3.292869,-0.20311269,28.632833,64.8485,-9.665832
2.39E+12,2.485001,1.882016823,-19.35158641,2.110202556,4.079358,3.2669072,-0.66614854,29.485134,64.32669,-9.7384
2.39E+12,2.490079,2.733509915,-19.41337139,3.891931101,3.9739838,2.5305092,-1.0122037,30.313227,63.890858,-9.677638
2.39E+12,2.495005,3.243046923,-19.43927967,5.860989065,3.8563924,1.9856175,-1.1505647,31.141747,63.483253,-9.478001
2.39E+12,2.500221,3.782581035,-19.4667132,7.945968021,3.8111882,-0.5928447,-0.9636399,31.08217,62.91438,-8.77043
2.39E+12,2.504994,3.646474189,-19.48228904,8.084744159,3.385415,-1.559539,-0.7473936,31.321888,62.4738,-8.190993
2.39E+12,2.509978,3.417286562,-19.49723636,7.985097455,3.2641585,-3.0769281,-0.17104226,30.687834,61.890602,-7.3919616
2.39E+12,2.515094,3.427006777,-19.50745884,7.809497674,3.2565227,-3.5897496,0.33750305,29.900316,61.146683,-6.509334
2.39E+12,2.51996,3.455000795,-19.51678989,7.636867895,3.4067955,-3.4101553,0.6985244,28.880642,60.352985,-5.66532
2.39E+12,2.524997,3.479240112,-19.52193513,7.847670006,3.4739907,-3.1435125,1.0030408,27.75176,59.553375,-4.951275
2.39E+12,2.530051,3.503165543,-19.52672082,8.091709303,3.3594534,-2.8619037,1.2125676,26.661266,58.76139,-4.346813
2.39E+12,2.535002,3.417996133,-18.77626088,8.513943417,3.1563408,-2.5482244,1.2812898,25.652493,57.988247,-3.8426046
2.39E+12,2.53994,3.323244106,-17.95958842,8.951607295,2.9123,-2.345417,1.4165965,24.66239,57.264973,-3.4386132
2.39E+12,2.544979,2.979768552,-17.05370025,8.945143397,2.6175575,-2.1960607,1.6074919,23.720192,56.594063,-3.1074235
2.39E+12,2.54997,2.578819549,-16.13859279,8.827217293,2.3182335,-1.9785925,1.7858646,22.8374,56.00596,-2.8531299
2.39E+12,2.554999,2.023539843,-15.19914321,8.553062805,2.05098,-1.9300288,1.960572,21.907312,55.393433,-2.648233
2.39E+12,2.559959,1.43381461,-14.26775208,8.239478791,1.7266107,-1.8704693,2.1197023,21.017683,54.893772,-2.518967
2.39E+12,2.565081,0.454372933,-13.19392609,7.77189264,1.427592,-1.8438967,2.228131,20.135551,54.41354,-2.4770756
2.39E+12,2.569959,-0.594244081,-12.13623008,7.281630414,1.1389582,-1.9520199,2.2110267,19.240772,54.033596,-2.4262986
2.39E+12,2.574998,-1.583535476,-10.97571887,6.564071366,0.91629785,-2.0421226,2.0384574,18.40399,53.68633,-2.455994
2.39E+12,2.580052,-2.533642808,-9.781298231,5.749693531,0.768163,-2.126422,1.8063285,17.565844,53.408783,-2.444835
2.39E+12,2.585001,-3.223148542,-8.542862105,4.787059648,0.655153,-2.154827,1.5491543,16.823023,53.1609,-2.5433624
2.39E+12,2.590009,-3.731798976,-7.235630542,3.683288269,0.54641896,-2.119397,1.3100005,16.120184,52.962723,-2.583942
2.39E+12,2.594985,-3.840805121,-5.821885312,2.832703968,0.4111123,-2.0195205,1.1869112,15.517589,52.792076,-2.7565248
2.39E+12,2.599982,-3.755644878,-4.345775118,2.099379966,0.34666604,-1.8692477,0.9184359,15.008082,52.642723,-2.853153
2.39E+12,2.605005,-3.282432376,-3.008144857,1.622881088,0.2321288,-1.740966,0.65087694,14.577794,52.543964,-3.0248783
2.39E+12,2.610007,-2.600075428,-1.755717473,1.290340038,0.077579886,-1.6084082,0.4868596,14.217591,52.478912,-3.186264
2.39E+12,2.615014,-1.595687203,-0.623995681,0.911283527,-0.12644911,-1.4511104,0.4129449,13.921112,52.390976,-3.3386931
2.39E+12,2.619998,-0.175672831,0.343039242,0.473573001,-0.3567453,-1.1884383,0.42088616,13.699184,52.356308,-3.5166066
2.39E+12,2.625002,0.914432922,1.013548387,0.233298175,-0.59131753,-0.9083566,0.37843102,13.451322,52.374596,-3.5717523
2.39E+12,2.630051,1.742123449,1.446420937,0.152431862,-0.8026769,-0.68233645,0.27000242,13.2631235,52.45123,-3.6532576
2.39E+12,2.635007,2.319426699,1.826262147,0.045688472,-0.98990715,-0.4465425,0.11636983,13.051531,52.594807,-3.5432153
2.39E+12,2.639996,2.688497227,2.167994231,-0.086447901,-1.162782,-0.19333886,-0.050396383,12.916939,52.79631,-3.4474015
2.39E+12,2.644982,2.958070326,2.517683966,-0.212848228,-1.3326025,0.06169739,-0.24220806,12.81002,53.014812,-3.2071586
2.39E+12,2.650098,3.095026901,2.887973786,-0.334587397,-1.4840971,0.27916542,-0.43218717,12.781426,53.278397,-2.96308
2.39E+12,2.654997,3.091108912,3.252817206,-0.481359491,-1.6447546,0.44440445,-0.61636305,12.80342,53.576633,-2.6396565
2.39E+12,2.660032,2.949339799,3.6382521,-0.663001182,-1.7922786,0.59712076,-0.78801614,12.903333,53.91344,-2.305597
2.39E+12,2.665057,2.673736394,4.338880464,-1.098459711,-1.9321668,0.93951076,-0.840856,13.084594,54.275326,-1.9881382
2.39E+12,2.670004,2.128652316,5.673572181,-2.045988851,-2.0497584,1.572978,-0.6771441,13.363034,54.667248,-1.7492225
2.39E+12,2.674993,1.467609587,6.50046409,-2.849451996,-2.1380284,2.3991733,-0.5018258,13.782944,55.0802,-1.6125367
2.39E+12,2.680051,0.662337426,6.708887522,-3.479459184,-2.3280075,3.177721,-0.41050145,14.3298435,55.552425,-1.583386
2.39E+12,2.685642,0.0104168,6.319740255,-3.702998365,-2.6966646,3.633121,-0.4392121,15.023466,56.111736,-1.7492149
2.39E+12,2.690011,-0.298845055,5.495041967,-3.480329806,-3.1627548,3.7244453,-0.54061574,15.81619,56.75767,-1.9818021
2.39E+12,2.694966,-0.133148429,4.439478397,-3.349453291,-3.6624427,3.7003162,-0.593761,16.752846,57.59486,-2.4350107
2.39E+12,2.700015,0.903095031,3.161917857,-3.420428822,-3.90068,3.6700783,-0.6404922,17.733255,58.50094,-2.8717852
2.39E+12,2.704961,1.887763784,1.936820492,-3.641677885,-4.2109995,3.7858374,-0.6096435,18.773657,59.62179,-3.3851795
2.39E+12,2.710041,2.836495221,0.732846588,-4.181058175,-4.2076397,3.8408153,-0.5833763,19.80989,60.72921,-3.8587663
2.39E+12,2.715084,3.874890215,-0.746651989,-4.285344863,-4.020715,3.7320812,-0.5357288,20.7932,61.97161,-4.124325
2.39E+12,2.720071,5.094989706,-2.77856848,-3.525749909,-3.7250562,3.4465017,-0.3885103,21.740387,63.18265,-4.388743
2.39E+12,2.724961,5.7291802,-4.411648817,-2.747174724,-3.3264668,2.9019153,-0.17592919,22.513817,64.30669,-4.517697
2.39E+12,2.730024,5.051170518,-5.24947514,-1.860919331,-2.8243356,2.1407773,0.064446285,23.142565,65.302246,-4.626791
2.39E+12,2.734997,4.236626373,-6.04523533,-0.867482639,-2.2666154,1.2565498,0.26847526,23.548513,66.29773,-4.3948674
2.39E+12,2.73999,3.076344739,-6.781567928,0.413289895,-1.7186694,0.36132678,0.4251622,23.731497,67.133255,-4.126347
2.39E+12,2.744986,1.882779039,-7.587923069,1.767504093,-1.171945,-0.49449542,0.48258355,23.705717,67.77401,-3.8681083
2.39E+12,2.750013,0.505382571,-8.775986584,3.523566119,-0.6044512,-1.3848315,0.4981606,23.419949,68.240395,-3.5427067
2.39E+12,2.755632,-0.993676252,-10.07441988,5.576454038,0.018325957,-2.2913556,0.5271767,22.908257,68.34263,-3.3543077
2.39E+12,2.760087,-2.070759805,-11.02268287,7.451509845,0.73548174,-3.256828,0.56596667,22.141201,68.2541,-3.0729277
2.39E+12,2.765049,-3.270420543,-12.07886265,9.539955841,1.4682146,-4.5210137,0.71685034,21.034584,67.68034,-2.9570587
2.39E+12,2.770026,-4.743314555,-13.11146194,9.446821099,2.634662,-5.573229,1.0152581,19.72036,66.79087,-2.7885556
2.39E+12,2.775087,-6.332820822,-14.15237749,8.607524482,4.583933,-5.2366424,1.6087136,18.404053,65.4779,-2.7265284
2.39E+12,2.780062,-7.254798829,-12.73100592,6.564058778,6.6339965,-1.8350391,2.2382102,17.56032,63.385216,-3.24204
2.39E+12,2.79506,-9.162853881,-5.120224965,-1.253964703,4.0705004,9.875248,3.8453968,18.614101,57.469944,-8.074017
2.39E+12,2.80004,-8.326379958,-4.902787625,-2.411050009,1.8704693,9.963212,3.849062,19.938684,56.39708,-10.729237
2.39E+12,2.805066,-6.731625686,-5.862593476,-2.844193043,0.30176744,9.420153,3.2433891,22.01818,55.41281,-13.685072
2.39E+12,2.81013,-4.150804952,-7.672458848,-1.393064782,-0.63499445,7.133684,2.3759604,23.800127,54.712433,-16.428314
2.39E+12,2.815052,-1.263988491,-9.758969809,0.75061072,-0.7984009,5.6850176,1.6826283,25.782854,54.179115,-19.066216
2.39E+12,2.820013,1.551859631,-11.4128767,2.642208229,-0.36957347,4.1963387,1.094976,27.335068,54.032665,-20.839176
2.39E+12,2.825404,4.573455557,-13.02674072,4.587894623,-0.34025195,1.96271,0.41783184,28.464504,54.103695,-22.071657
2.39E+12,2.829979,6.616649653,-13.33169594,4.462424459,-0.61575216,-0.0571159,-0.14385876,29.05624,54.46053,-22.275679
2.39E+12,2.835008,8.642032057,-13.2162344,3.572410917,-0.77182823,-1.4089607,-0.6065892,29.30566,54.88676,-22.115585
2.39E+12,2.839991,9.343019,-12.30709607,1.255250856,-0.8680395,-2.038152,-0.95111716,28.96105,55.59675,-21.049084
2.39E+12,2.845004,9.380624844,-10.98619192,-1.809623521,-0.9932669,-2.1450534,-1.1163563,28.437895,56.36161,-19.834694
2.39E+12,2.85,8.450662231,-9.876514657,-4.232566241,-1.1395692,-1.92392,-1.1600331,27.84101,57.36347,-18.28808
2.39E+12,2.854995,6.92930484,-8.893483602,-6.268844443,-1.3723087,-1.5079209,-1.1838568,27.291794,58.38078,-16.7603
2.39E+12,2.860035,5.184016,-8.422371982,-7.601458355,-1.8506162,-1.0488557,-1.2073752,27.067114,59.696423,-15.449155
2.39E+12,2.865066,3.288989955,-8.330754612,-8.406723831,-2.445599,-0.5626069,-1.2730432,26.947054,61.07481,-14.193944
2.39E+12,2.870009,1.709450432,-8.721785889,-8.618440763,-2.9678888,-0.07574729,-1.3579534,27.141436,62.628178,-13.338905
2.39E+12,2.87502,0.310157786,-9.46232089,-8.41854157,-3.3673947,0.21930063,-1.5250251,27.404621,64.30317,-12.47887
2.39E+12,2.880065,-0.734518911,-10.44777071,-8.056723062,-3.55829,0.45081854,-1.7977765,27.910414,66.05525,-11.938264
2.39E+12,2.885004,-1.361576936,-11.67319776,-7.528027099,-3.5876117,0.56596667,-2.1239784,28.456347,67.87527,-11.345026
2.39E+12,2.890011,-1.918509231,-13.00154691,-6.999204711,-3.503923,0.84116143,-2.296548,29.150782,69.634796,-10.951874
2.39E+12,2.895031,-2.059154568,-14.78975105,-6.506946479,-3.4287865,1.2092078,-2.6703975,29.911789,71.4477,-10.412731
2.39E+12,2.89997,-2.169490531,-16.31004605,-5.93447444,-3.1856623,1.756543,-3.0619621,30.779259,73.13792,-9.898503
2.39E+12,2.904995,-2.191271748,-17.08545809,-5.067581473,-2.7876835,2.384207,-3.4187074,31.751673,74.788284,-9.298926
2.39E+12,2.910032,-2.19925544,-17.85036068,-4.084732756,-2.1783454,2.8154778,-3.7265835,32.78396,76.35282,-8.574346
2.39E+12,2.91506,-1.871122613,-18.313914,-0.339851979,-1.5216653,2.7721064,-3.9272528,33.824585,77.81992,-7.7780538
2.39E+12,2.91999,-1.48380544,-18.71896929,3.136645394,-1.2712106,2.1184807,-3.9229765,34.73147,79.14766,-6.915782
2.39E+12,2.924992,-0.797686476,-18.90883847,5.790501981,-1.8466456,1.144456,-3.7161987,35.500443,80.4754,-6.0493484
2.39E+12,2.930392,-0.074692105,-19.11069043,8.540031787,-2.833804,0.23335053,-3.2803464,35.92289,81.43952,-5.175418
2.39E+12,2.935004,0.174294282,-19.21809645,8.486328776,-3.6364808,-0.47616947,-2.6615398,36.10689,82.3919,-4.407353
2.39E+12,2.940002,0.323657519,-19.31297402,8.150461375,-4.117232,-0.93523467,-2.014939,35.967785,83.10021,-3.6889536
2.39E+12,2.944971,-0.179443239,-19.29090821,6.314584765,-4.291023,-1.1294898,-1.3979651,35.690903,83.815834,-3.14707
2.39E+12,2.950306,-0.763262372,-19.27100287,4.397847271,-4.249484,-1.0665708,-0.8588765,35.343094,84.529495,-2.7442617
2.39E+12,2.954995,-1.927338546,-19.30994954,3.523708274,-4.108374,-0.8268061,-0.46578476,34.98119,85.18342,-2.4882243
2.39E+12,2.960001,-3.170112129,-19.3515292,2.590473082,-4.0124683,-0.4538729,-0.24617869,34.721287,85.95826,-2.3863912
2.39E+12,2.965075,-3.543052123,-19.39498896,2.514226538,-4.01369,0.040317107,-0.22449298,34.55882,86.62496,-2.3484137
2.39E+12,2.970029,-3.836088379,-19.43752634,2.509500152,-4.0582833,0.42821655,-0.4334089,34.469986,87.18272,-2.3102407
2.39E+12,2.975102,-3.72175646,-19.22771047,2.415844833,-4.1361685,0.4746423,-0.7507534,34.441082,87.51347,-2.387574
2.39E+12,2.980103,-3.574552228,-18.99978169,2.316125806,-4.212221,0.23090707,-0.9963212,34.435867,92.43306,-2.423124
2.39E+12,2.985028,-3.154506231,-18.4385906,2.030178231,-4.195728,0.13439035,-1.1200215,34.48118,92.67713,-2.4348912
2.39E+12,2.989961,-2.708957444,-17.84610498,1.726825953,-3.9202278,0.15454891,-1.1695015,34.48535,93.0791,-2.3951206
2.39E+12,2.995016,-2.304492984,-16.93475308,2.630702816,-3.685961,0.2275473,-1.2663237,34.47215,93.58622,-2.2909522
2.39E+12,2.999959,-1.914781902,-16.00977619,3.649585922,-3.2210925,0.32284227,-1.3701707,34.46666,94.053795,-2.170248
2.39E+12,3.005014,-1.645760392,-14.9472838,4.608659547,-2.8832839,0.39095375,-1.4553864,34.478783,94.5397,-1.9795041
2.39E+12,3.010645,-1.365516192,-13.74623738,5.664579797,-2.6917777,0.31520647,-1.5180001,34.472828,94.969315,-1.770269
2.39E+12,3.015114,-1.448396231,-12.63861722,5.759936468,-2.5332582,0.35430184,-1.5457945,34.5176,95.2072,-1.5272522
2.39E+12,3.019945,-1.598248037,-11.4107982,5.716431221,-2.3860397,0.77763146,-1.505172,34.649704,95.410706,-1.2831429
2.39E+12,3.025009,-1.894614119,-10.31592559,5.652897492,-2.3518312,1.3826935,-1.4431691,34.839375,95.452805,-1.0594772
2.39E+12,3.029996,-2.21860141,-9.282025071,5.586194079,-2.3744333,1.9126191,-1.3778065,35.12682,95.47923,-0.8454099
2.39E+12,3.035027,-2.706393324,-8.1603887,4.917500175,-2.2974641,2.2821925,-1.2947289,35.52698,95.42751,-0.72362316
2.39E+12,3.039997,-3.224517128,-7.03464755,4.121473793,-2.1566598,2.6163359,-1.1887437,36.062332,95.369385,-0.6225225
2.39E+12,3.045108,-3.644467653,-6.043566012,3.374607441,-1.9792033,2.9275718,-1.0903945,36.681725,95.29913,-0.5865851
2.39E+12,3.049999,-4.018814386,-5.135774571,2.677386254,-1.7968601,3.1560352,-1.0161743,37.365044,95.191216,-0.5773024
2.39E+12,3.055012,-4.151827947,-4.56716713,2.240808803,-1.6267341,3.1920764,-0.9651671,38.087997,95.23021,-0.58367544
2.39E+12,3.060054,-4.219132925,-4.091227279,1.875440855,-1.4758505,3.0069842,-0.9941832,38.8056,95.22027,-0.59818345
2.39E+12,3.065037,-3.967108477,-3.32331126,2.377051043,-1.3579534,2.579684,-1.10139,39.471573,95.324196,-0.60960764
2.39E+12,3.070026,-3.631171706,-2.47637273,3.105702002,-1.2754866,1.8988746,-1.1994339,40.007282,95.39131,-0.6359719
2.39E+12,3.075004,-3.443488607,-1.786500319,4.058924414,-1.1664472,1.0891727,-1.2125676,40.391544,95.49351,-0.6565919
2.39E+12,3.080749,-3.278669279,-1.044813322,5.23841282,-0.98868537,0.29168814,-1.135904,40.583652,95.548164,-0.70094866
2.39E+12,3.085028,-3.351454479,-0.875533487,5.526986725,-0.7357872,-0.0842994,-1.0488557,40.69962,95.524574,-0.6418276
2.39E+12,3.090043,-3.518013248,-0.836343185,5.620063672,-0.36865717,-0.68875057,-1.0091494,40.524975,95.412674,-0.62483126
2.39E+12,3.094975,-3.936246073,-0.54182595,4.64667472,-0.15699236,-0.9230174,-0.8958339,40.363327,95.16119,-0.6072356
2.39E+12,3.100003,-4.490661604,-0.112756637,3.118416587,0.3231477,-0.72021013,-0.6942484,40.160793,94.72615,-0.6340696
2.39E+12,3.104998,-5.004603755,0.24441522,1.88843072,0.8176431,-0.24984388,-0.40011674,39.97412,94.227554,-0.74245214
2.39E+12,3.110042,-5.505106642,0.570430842,0.79099783,1.2021828,0.2312125,-0.07086037,39.855816,93.64532,-0.9180116
2.39E+12,3.11508,-5.488850466,0.791516183,-0.105688729,1.3671165,0.38912117,0.23640485,39.790718,93.28541,-1.2614363
2.39E+12,3.119999,-5.101127497,0.932065677,-0.837515403,1.319469,0.20433442,0.49510628,39.770264,93.00599,-1.6883906
2.39E+12,3.124996,-4.500130603,1.126099921,-1.268905735,1.135904,-0.2302962,0.7431176,39.73378,93.11351,-2.3000777
2.39E+12,3.130001,-3.770680723,1.351994122,-1.508918262,0.87964594,-0.8579602,0.977079,39.59377,93.460106,-2.9919887
2.39E+12,3.135001,-3.224679405,1.719929328,-1.470546584,0.7134906,-1.4987578,1.1572843,39.339188,93.99183,-3.699442
2.39E+12,3.139994,-2.809952782,2.188965458,-1.233559935,0.61758476,-2.0143282,1.2916746,38.946983,94.65544,-4.469599
2.39E+12,3.144998,-2.601474991,2.660281049,-1.088339523,0.54428095,-2.3774874,1.3768903,38.42612,95.2991,-5.1690354
2.39E+12,3.150455,-2.498528764,3.175012023,-0.98539335,0.54519725,-2.4791965,1.4257594,37.839478,95.98991,-5.9012675
2.39E+12,3.154996,-2.473715502,3.15700902,-0.777919491,0.7284568,-2.3350325,1.3924674,37.22078,96.617645,-6.5667195
2.39E+12,3.159999,-2.478437413,2.902028194,-0.48516385,1.1872166,-1.9205604,1.2382239,36.65484,97.23349,-7.2137394
2.39E+12,3.165061,-1.91351119,2.252334951,0.621715018,1.8393153,-1.4236214,1.0091494,36.155403,97.82287,-7.8217144
2.39E+12,3.169998,-0.97749263,1.353945348,2.249164338,2.4764478,-1.0094548,0.8558222,35.754097,81.581825,-8.40948
2.39E+12,3.174997,0.037149565,0.37964786,3.746551728,2.8573222,-0.77946407,0.8063421,35.428364,80.98468,-8.953426
2.39E+12,3.180016,1.105490979,-0.646522212,5.138206965,2.886949,-0.75411314,0.7651087,35.16278,80.37255,-9.45722
2.39E+12,3.185001,1.733595085,-1.602950009,5.462241435,2.7058277,-0.91324353,0.7312057,34.805733,79.84831,-9.722649
2.39E+12,3.190005,1.971746495,-2.506127717,4.828669019,2.6196957,-1.2244794,0.6239988,34.407345,79.24914,-9.944288
2.39E+12,3.194972,1.997019991,-3.342866773,3.470378926,2.5127943,-1.5525141,0.54519725,33.860703,78.68939,-9.886638
2.39E+12,3.200004,1.68492519,-4.094963896,0.92757458,2.485,-1.7489072,0.5342017,33.25994,78.01601,-9.793371
2.39E+12,3.204997,1.305329281,-4.984316433,-1.590872286,2.5170703,-1.7721201,0.59681535,32.66552,77.38583,-9.607789
2.39E+12,3.210022,0.854905668,-6.01933234,-4.120911492,2.6273315,-1.525636,0.7583892,32.08744,76.656105,-9.431673
2.39E+12,3.215074,0.446586486,-7.094964146,-5.565205313,2.7748554,-1.1569787,0.9957104,31.680956,76.1401,-9.37061
2.39E+12,3.220065,0.085813152,-8.191159973,-5.939854578,2.9944615,-0.91232723,1.2889256,31.296244,75.53432,-9.367765
2.39E+12,3.22494,-0.145958007,-9.278268598,-5.628451567,3.258966,-0.97035944,1.6242907,31.069998,75.17801,-9.563984
2.39E+12,3.230047,-0.22150735,-10.43983992,-4.363000176,3.47002,-1.389413,2.0112739,30.792849,74.72493,-9.8476
2.39E+12,3.234955,-0.332123007,-11.7530864,-3.215338382,3.6224308,-2.043955,2.44285,30.45657,74.21221,-10.27365
2.39E+12,3.239992,-0.515729282,-13.46396271,-2.163775177,3.683212,-2.6780334,2.8386908,29.990349,73.60833,-10.767635
2.39E+12,3.245196,-0.716640951,-15.18023491,-1.182551554,3.6749654,-3.0579915,3.1230485,29.324614,72.808365,-11.253233
2.39E+12,3.250002,-1.015482121,-16.24686831,-1.338868396,3.6801577,-2.9743028,3.1914654,28.603254,71.97219,-11.760807
2.39E+12,3.255159,-1.282201757,-17.35934029,-1.472548073,3.767206,-2.4266622,3.0277536,27.857336,71.044945,-12.201451
2.39E+12,3.260007,-0.909594933,-18.03469036,-1.204736966,3.9721513,-1.6157386,2.7101038,27.22112,70.12442,-12.624708
2.39E+12,3.26507,-0.520463673,-18.73999098,-0.925048923,4.2424593,-0.97127575,2.3041837,26.741297,69.26256,-13.024726
2.39E+12,3.269996,-0.21646234,-19.06455333,-0.285401615,4.4235806,-0.42088616,1.8383989,26.494694,68.45368,-13.365389
2.39E+12,3.274988,0.053082315,-19.20667667,0.55263721,4.4321327,0.061086524,1.3255776,26.44664,67.712555,-13.622872
2.39E+12,3.280073,0.415217776,-19.29958598,0.827880298,4.2479568,0.28710666,0.70463306,26.468285,67.11542,-13.626918
2.39E+12,3.285026,0.803641399,-19.36894729,0.86024893,3.998113,0.6789767,0.3555236,26.688751,66.566444,-13.633517
2.39E+12,3.290014,1.363098848,-19.41233282,1.009337394,3.9086213,1.0369438,-0.37904188,26.970896,66.11467,-13.323625
2.39E+12,3.295009,2.012038912,-19.44183025,1.220032232,3.8176024,1.3414601,-1.0824533,27.376614,65.75135,-12.982105
2.39E+12,3.299958,2.773029525,-19.46726544,1.643464204,3.8649445,1.382388,-1.750129,27.833546,65.46666,-12.42228
2.39E+12,3.305023,3.752464708,-19.48685403,2.441703857,4.039652,1.2098186,-2.312125,28.373362,65.21915,-11.741169
2.39E+12,3.309972,4.845596098,-19.48526967,3.999417781,4.245819,0.7968737,-2.7320948,28.834303,64.970535,-10.806056
2.39E+12,3.31506,6.181239504,-19.45139448,6.811044206,4.4135013,0.18661933,-3.0375273,29.24479,64.6727,-9.750826
2.39E+12,3.319948,8.137321683,-18.82198975,8.21432341,4.587598,-1.2483032,-3.0085113,29.217978,64.18939,-8.395751
2.39E+12,3.325013,11.28379494,-17.17680633,7.509244658,4.252233,-2.9767463,-2.0983222,28.898716,63.666187,-7.124625
2.39E+12,3.329981,12.76038649,-16.44284457,6.530237107,3.6661077,-3.5048394,-0.26358834,28.166853,62.76737,-5.8385663
2.39E+12,3.335672,11.19531551,-17.38188671,4.827227876,3.4394767,-2.6096163,1.3494014,27.312986,61.78294,-4.754959
2.39E+12,3.339966,9.731017242,-17.95620793,4.379060527,3.5870006,-1.3842206,2.130698,26.0782,60.764133,-3.4593837
2.39E+12,3.345015,7.393592209,-18.33996517,5.669877312,3.6209037,-0.7415904,2.3130412,24.840628,59.784245,-2.5093381
2.39E+12,3.350002,5.134702981,-18.62466786,6.891332635,3.4187074,-0.64751714,2.2382102,23.919352,59.018116,-2.0678663
2.39E+12,3.354998,3.367791771,-17.97077102,7.582329119,3.0213394,-0.72784597,2.085494,23.110601,58.30471,-1.7276714
2.39E+12,3.360282,1.553943194,-17.21808939,8.247797909,2.6413813,-0.83291477,1.9963076,22.456985,57.570095,-1.7618568
2.39E+12,3.365109,0.479474814,-15.8825355,8.162443054,2.2519548,-1.0167851,2.0528126,21.771557,56.96745,-1.7677513
2.39E+12,3.37023,-0.589457844,-14.54526884,8.068477423,1.8945986,-1.1349876,2.107485,21.170036,56.37646,-1.9879341
2.39E+12,3.375015,-1.361789693,-13.54981903,7.969790607,1.6450601,-1.3582588,2.1716259,20.494713,55.876545,-2.168611
2.39E+12,3.380099,-2.177724229,-12.50101853,7.812744583,1.3564262,-1.5097535,2.2046127,19.84161,55.414333,-2.4786947
2.39E+12,3.385022,-2.906624864,-11.60172516,6.974982337,1.0687088,-1.690875,2.1859813,19.133701,55.030033,-2.7385178
2.39E+12,3.390089,-3.635974864,-10.68863431,6.12407242,0.926988,-1.752267,2.1273382,18.452522,54.61026,-3.1048212
2.39E+12,3.395009,-4.092772971,-9.952681805,5.434645319,0.6737844,-1.6572775,1.9883664,17.791304,54.310413,-3.4321299
2.39E+12,3.399996,-4.555791702,-9.206707185,4.735829678,0.3866777,-1.6362026,1.743104,17.180468,54.0726,-3.8133688
2.39E+12,3.405708,-4.87260769,-8.012602564,3.40197442,0.16126843,-1.7223345,1.1368202,16.659187,53.90523,-4.066803
2.39E+12,3.409972,-5.081052404,-7.076567707,2.336153267,0.13133603,-1.7705929,0.9233228,16.134443,53.756996,-4.3565383
2.39E+12,3.415086,-4.901979091,-5.287221734,0.809352448,0.14782938,-1.7131716,0.52503866,15.784952,53.687965,-4.559091
2.39E+12,3.419948,-4.59808401,-3.378380255,-0.719620019,0.21227567,-1.3878858,0.23609942,15.509782,53.616116,-4.7719746
2.39E+12,3.425014,-3.325432578,-1.873919125,-1.166668072,0.23823744,-1.1065824,0.13713925,15.304133,53.586212,-5.009858
2.39E+12,3.429992,-1.816754199,-0.52640512,-1.296495004,0.15577064,-1.0036516,0.08827003,15.176404,53.576897,-5.219293
2.39E+12,3.43502,-0.605419698,0.388960724,-1.262581838,0.03145956,-0.94134337,0.040317107,15.12333,53.548443,-5.4467726
2.39E+12,3.440018,0.440433338,1.073163628,-1.145289892,-0.13530666,-0.8854492,-0.015271631,15.106671,53.556976,-5.6827106
2.39E+12,3.445016,1.195360017,1.830311391,-1.163477004,-0.31520647,-0.7696902,-0.06383542,14.989671,53.593365,-5.6703305
2.39E+12,3.45003,1.831681203,2.620227271,-1.238080165,-0.50426924,-0.5882632,-0.118507855,14.912576,53.681995,-5.6666503
2.39E+12,3.455016,2.120175076,3.146918595,-1.295606917,-0.7199047,-0.45662177,-0.18753563,14.776091,53.810677,-5.481857
2.39E+12,3.460025,2.090301015,3.435700872,-1.337928457,-0.95814216,-0.33964106,-0.26847526,14.6895,54.00147,-5.3085546
2.39E+12,3.465058,2.060283815,3.725866812,-1.380452775,-1.1878275,-0.1826487,-0.36193767,14.600613,54.2003,-5.0257316
2.39E+12,3.470012,2.030737778,4.011478191,-1.422309614,-1.4165965,0.010690142,-0.46273044,14.562135,54.467705,-4.744215
2.39E+12,3.475462,1.956932291,5.008370855,-1.670358678,-1.6221527,0.22632557,-0.6026186,14.586614,54.79554,-4.457997
2.39E+12,3.480008,1.879990628,6.094103395,-1.952478126,-1.7852536,0.36193767,-0.67011917,14.641954,55.17496,-4.1799707
2.39E+12,3.485004,2.023497437,6.637606618,-2.035367625,-1.8674151,0.7067711,-0.7492262,14.818399,55.561523,-3.943915
2.39E+12,3.490011,2.304167806,6.792459298,-1.982137085,-2.0027218,1.0961977,-0.7535023,15.036555,56.007187,-3.733808
2.39E+12,3.495,2.51596643,6.732196909,-2.114850629,-2.1423044,1.564426,-0.711658,15.357659,56.418186,-3.6025274
2.39E+12,3.499996,2.69046531,6.552981598,-2.350660006,-2.2886066,2.0482311,-0.5891795,15.764897,56.867184,-3.5491629
2.39E+12,3.504997,2.743792509,5.91898263,-2.657002739,-2.6520715,2.470339,-0.4596761,16.243776,57.39711,-3.5129023
2.39E+12,3.509985,2.720467764,4.999986983,-3.006874211,-3.1554244,2.8118126,-0.3304781,16.804281,58.00659,-3.5634735
2.39E+12,3.515064,2.582795348,3.529549029,-3.205481636,-3.6468656,3.089451,-0.23090707,17.439207,58.763073,-3.6574795
2.39E+12,3.519998,2.365294947,1.707983179,-3.282513024,-4.0026946,3.1859677,-0.183565,18.109146,59.627674,-3.786645
2.39E+12,3.524996,2.097040496,-0.185028628,-3.103853306,-4.1291437,3.0250046,-0.1957823,18.807817,60.688442,-3.930922
2.39E+12,3.529998,1.776434009,-2.131567952,-2.645844093,-3.9852848,2.5766296,-0.2855795,19.472525,61.78329,-4.0312862
2.39E+12,3.535,1.569476032,-3.993500896,-2.197884143,-3.601356,1.8359555,-0.35308012,20.03913,62.89498,-4.1399646
2.39E+12,3.539991,1.541955895,-5.718094369,-1.766735691,-3.0634892,1.0021244,-0.3005457,20.468382,63.917713,-4.1824093
2.39E+12,3.545138,1.334368037,-7.442749629,-1.182735141,-2.4898868,0.16310102,-0.110872045,20.73352,64.94425,-4.1689425
2.39E+12,3.550003,0.781384118,-8.965721668,-0.35325922,-1.8677205,-0.6267477,0.16554448,20.779177,65.7916,-4.096812
2.39E+12,3.554966,-0.111493175,-10.77065122,0.782654952,-1.187522,-1.3026701,0.50976706,20.61343,66.52355,-3.985077
2.39E+12,3.559989,-2.05169996,-13.38966352,2.845794939,-0.42760566,-1.8429805,0.784351,20.252033,67.03896,-3.8571157
2.39E+12,3.565067,-3.667326465,-15.35430072,5.1403006,0.52534413,-2.4291058,0.8032878,19.703693,67.24403,-3.7666607
2.39E+12,3.569999,-4.833064557,-16.46560778,7.61239131,1.6759088,-2.9550607,0.7144069,19.011526,67.16479,-3.6669164
2.39E+12,3.574939,-5.843699276,-16.99898823,9.029696833,3.2345314,-3.2281175,0.9737192,18.24025,66.467995,-3.918585
2.39E+12,3.580085,-6.60254859,-16.46922483,8.52379734,4.3627996,-3.5149186,1.219287,17.344952,65.58866,-4.0603037
2.39E+12,3.584944,-7.189346431,-14.64792089,7.496314714,6.6981373,-2.3176227,1.7095064,16.718704,63.555,-4.62492
2.39E+12,3.590006,-7.481352127,-9.498889151,5.072668396,7.73783,1.0045679,2.1542163,16.54308,61.629128,-5.438633
2.39E+12,3.594973,-7.528239119,-4.806125553,2.997108799,7.0377784,4.7100763,2.7061331,16.726185,59.581963,-6.741775
2.39E+12,3.600006,-7.021413422,-0.88291886,1.593952305,5.222898,7.1003923,3.257439,17.31704,57.590397,-8.406675
2.39E+12,3.604945,-6.150914025,2.296351205,-0.115345595,3.1270192,7.528914,3.4080172,18.310986,55.69762,-10.534249
2.39E+12,3.609989,-4.092638052,3.441617601,-2.902427301,1.3897184,6.432411,3.150232,19.469799,54.188488,-12.813127
2.39E+12,3.615113,-2.00171694,4.605048413,-5.733713316,0.19364429,5.0778174,2.667954,20.655478,53.048492,-15.098158
2.39E+12,3.620059,1.879083506,2.528868232,-1.621132697,-0.02107485,4.4898596,2.2797492,21.785217,52.07555,-17.29807
2.39E+12,3.62528,6.159942024,-0.395161051,3.712033224,0.41050145,3.2259793,1.8567249,22.501993,51.274216,-19.048082
2.39E+12,3.630011,8.919940883,-4.712407357,7.147261194,0.6206391,-0.4804455,1.3329079,22.623505,50.9654,-19.994635
2.39E+12,3.634956,11.80478433,-9.224938108,10.73787677,0.5839872,-3.5085046,0.4868596,22.182604,50.67443,-19.663969
2.39E+12,3.639994,12.40877043,-11.90119149,6.122050032,0.78954333,-3.9559634,-0.24098633,21.535545,50.3314,-19.040106
2.39E+12,3.644973,12.7147624,-14.30675683,0.529463436,-0.28160888,-3.5515707,-0.537256,20.434744,50.36114,-17.945559
2.39E+12,3.650002,10.34371995,-15.67742905,-4.422753398,-1.5803084,-2.1960607,-0.6114761,19.220266,50.60107,-15.909839
2.39E+12,3.654936,7.609122079,-16.86085008,-9.175296041,-2.5625796,-0.037873644,-0.29657507,18.353937,50.95472,-14.205015
2.39E+12,3.659988,3.426991057,-16.38741735,-10.26193732,-3.1569517,1.8680259,0.30207285,18.179209,52.36405,-12.946995
2.39E+12,3.665069,-1.015815503,-15.62271019,-10.70762509,-2.9770517,2.8170052,0.9624182,18.223286,53.727077,-12.03337
2.39E+12,3.669997,-3.796788105,-14.91531456,-9.2940536,-2.5222626,3.0216448,1.3497068,18.928854,55.624046,-12.004396
2.39E+12,3.674937,-6.207206763,-14.21466234,-7.421242129,-2.130698,3.098614,1.4300356,19.79246,57.38217,-12.181351
2.39E+12,3.680025,-7.696365808,-13.46482076,-5.216443452,-1.8860464,3.2690454,1.4358387,20.930576,58.809612,-13.178239
2.39E+12,3.68497,-8.595751635,-12.72050192,-2.921459129,-1.473407,3.2717943,1.2043208,22.093641,60.01674,-14.074575
2.39E+12,3.690011,-8.563457533,-12.33892336,-1.35669662,-1.4196508,3.090062,0.76174897,23.279202,60.798923,-15.22319
2.39E+12,3.695013,-8.306724085,-12.04958883,0.012548009,-1.6814066,2.8145616,0.11148291,24.50963,61.53936,-16.195131
2.39E+12,3.700005,-6.785530666,-12.23401477,1.049107461,-2.087021,2.468812,-0.65087694,25.623005,62.014183,-17.03612
2.39E+12,3.704994,-3.796267639,-12.96782507,1.701883348,-2.5723536,2.1649065,-1.3600914,26.737282,62.621056,-17.652468
2.39E+12,3.709986,-1.529843187,-13.69111531,2.076332041,-3.0094275,1.919644,-1.9462167,27.695244,63.237816,-17.96348
2.39E+12,3.715058,-0.682473454,-14.40398178,1.896994473,-3.2281175,1.6114625,-2.4153612,28.595537,63.99444,-18.055195
2.39E+12,3.719942,0.063434303,-15.16842895,1.728027669,-3.2012393,1.3054191,-2.8463266,29.281998,65.18394,-17.437428
2.39E+12,3.724993,0.464443896,-16.37145801,1.572970623,-2.9874365,1.0882565,-3.2601879,29.925386,66.4472,-16.678211
2.39E+12,3.730499,0.749347885,-17.37577804,1.752671746,-2.7003298,1.0009027,-3.640146,30.50704,67.88491,-15.649671
2.39E+12,3.734966,0.809489656,-17.84563532,2.290188906,-2.4535403,1.044885,-3.9022071,31.063784,69.31687,-14.545666
2.39E+12,3.740002,0.855705067,-18.35763064,2.882457173,-2.3420575,1.0732902,-4.0656137,31.586916,70.83258,-13.293483
2.39E+12,3.745,0.672665395,-18.67795073,3.324803056,-2.4941628,1.0864239,-4.0915756,32.10351,72.33455,-12.032181
2.39E+12,3.749989,0.420556082,-18.96382214,3.624409648,-2.8823676,1.1340714,-3.9828415,32.58198,73.78832,-10.763107
2.39E+12,3.754966,-0.10573846,-19.11488765,3.361262413,-3.4159584,1.1307116,-3.7647624,33.02832,75.24316,-9.543192
2.39E+12,3.759994,-0.646421605,-19.24889704,3.065834369,-3.9073997,0.990518,-3.4987307,33.411236,76.65607,-8.403878
2.39E+12,3.765103,-1.224100001,-19.32656813,2.672624713,-4.224744,0.74006325,-3.111442,33.728775,78.04709,-7.379307
2.39E+12,3.769987,-1.831221113,-19.39211638,2.391119469,-4.359745,0.5421429,-2.5332582,34.00839,79.38513,-6.559394
2.39E+12,3.774998,-2.638643334,-19.43011299,2.419616655,-4.2830815,0.07513642,-2.1697934,34.117752,80.68463,-5.7836704
2.39E+12,3.779988,-3.527373664,-19.3842433,2.501172995,-4.169766,-0.38881573,-1.3729197,34.07111775,81.70837353,-5.417101706
2.39E+12,3.784965,-4.735006854,-19.02100998,2.78421194,-3.9022071,-0.81581056,-0.57787853,34.024605,82.72945,-5.051488
2.39E+12,3.79003,-5.897699028,-18.71394515,3.121246073,-3.6575556,-1.1429288,0.050701816,33.7881,83.395546,-5.005884
2.39E+12,3.794997,-6.765873831,-18.66964963,3.652781537,-3.5509596,-1.3585643,0.3921755,33.445457,83.84176,-5.099605
2.39E+12,3.800182,-7.638113255,-18.64046971,4.182974831,-3.6129625,-1.4776831,0.45142943,33.02532,83.93446,-5.433334
2.39E+12,3.804996,-8.059378427,-18.80811675,4.393607462,-3.7143662,-1.6404786,0.29077184,32.52794,83.87994,-5.789772
2.39E+12,3.810006,-8.497795236,-18.98258948,4.612815913,-3.7204747,-1.8106046,-0.042455133,31.982527,83.62442,-6.2216735
2.39E+12,3.815073,-7.672175738,-18.63659309,4.202308764,-3.484681,-1.7708983,-0.5155703,31.45491,83.38902,-6.555587
2.39E+12,3.82017,-6.664377588,-18.2021501,3.716455629,-3.1294627,-1.4349225,-0.9636399,30.967829,83.19933,-6.791335
2.39E+12,3.824996,-4.817545701,-17.07248922,3.214904866,-2.7757716,-0.68691796,-1.2907583,30.61068,96.97253,-6.9724183
2.39E+12,3.830282,-2.818050945,-15.8129482,2.812270747,-2.5659394,0.31642818,-1.4477507,30.4387,96.98499,-6.970023
2.39E+12,3.835002,-1.268328352,-14.46436954,3.932276769,-2.556471,1.2153164,-1.4123205,30.455944,96.977455,-6.925729
2.39E+12,3.840115,0.339032137,-13.03519772,5.054247657,-2.5442538,1.6401732,-1.2843442,30.643892,96.79567,-6.6753764
2.39E+12,3.844998,1.012598846,-12.05273454,5.024215998,-2.356718,1.7143933,-1.2177598,30.985174,96.63058,-6.4210334
2.39E+12,3.849968,1.698166437,-11.05276689,4.993649266,-2.218357,1.8735237,-1.2751812,31.473024,96.33356,-6.048038
2.39E+12,3.854999,1.85564337,-10.00682265,4.402681379,-2.205529,2.1856759,-1.3952162,32.01647,96.05246,-5.6816
2.39E+12,3.860001,1.929979665,-8.961741618,3.729281912,-2.2049181,2.4898868,-1.505172,32.59317,95.76591,-5.3083653
2.39E+12,3.865062,1.87730217,-7.762110055,2.963521744,-2.149024,2.8163943,-1.5522085,33.260765,95.41967,-4.871643
2.39E+12,3.870228,1.763512444,-6.470844075,2.142256998,-2.0347922,3.125492,-1.4950926,33.99653,95.08544,-4.441198
2.39E+12,3.874996,1.484564582,-5.436608592,1.55318107,-1.8487836,3.2647693,-1.4556919,34.774582,94.78107,-3.984238
2.39E+12,3.880026,1.116539822,-4.412347062,1.003360909,-1.7302758,3.4968982,-1.3515394,35.65491,94.52861,-3.5670667
2.39E+12,3.885001,0.621062466,-3.369287586,0.975512538,-1.4840971,3.5607336,-1.2544118,36.532654,94.33537,-3.1560657
2.39E+12,3.890037,-0.007872093,-2.284375463,1.447213457,-1.2174544,3.3056972,-1.1939361,37.3737,94.16058,-2.7731967
2.39E+12,3.894998,-0.689512051,-1.398348707,2.032273798,-0.9257663,2.6209173,-1.1643091,38.113575,94.06912,-2.4438565
2.39E+12,3.9,-1.407243291,-0.594661625,2.681240351,-0.6041457,1.6865989,-1.1038336,38.70085,93.94796,-2.155763
2.39E+12,3.904998,-2.28910439,0.147599588,2.935677482,-0.30665436,0.7367035,-1.0268645,39.041443,93.76211,-2.0344388
2.39E+12,3.909996,-3.381975807,0.811988424,2.685328054,-0.035430185,-0.03848451,-0.91751957,39.161224,93.52042,-1.9578602
2.39E+12,3.915054,-4.258747433,1.38350321,2.186084889,0.20250183,-0.55924714,-0.786489,39.1748,93.27751,-1.8441243
2.39E+12,3.91999,-4.847203931,1.823687146,1.412287952,0.3585779,-0.79779,-0.6188065,39.05103,93.01238,-1.7823437
2.39E+12,3.924944,-5.30127124,2.231072494,0.84336381,0.4636467,-0.94225967,-0.41508293,38.811054,92.86893,-1.9194472
2.39E+12,3.930032,-5.55928349,2.596980861,0.575969268,0.5225952,-1.1026118,-0.19608775,38.502106,92.77615,-2.1165013
2.39E+12,3.934941,-5.719695417,2.885381278,0.316850665,0.5589417,-1.2247849,0.042760566,38.171745,92.91741,-2.4757984
2.39E+12,3.94,-5.696861488,3.045218783,0.047410109,0.5589417,-1.3240504,0.2919936,37.80604,93.176384,-2.9082744
2.39E+12,3.944954,-5.622966048,3.207977624,-0.223893412,0.54641896,-1.3652838,0.5516113,37.429714,93.61367,-3.460392
2.39E+12,3.950059,-5.338664941,3.400896051,-0.533578287,0.5311473,-1.3652838,0.8032878,37.040447,94.16667,-4.089144
2.39E+12,3.954965,-5.041179039,3.528825998,-0.815955476,0.50762904,-1.2504412,1.0409144,36.68229,94.832245,-4.794257
2.39E+12,3.960001,-4.672673148,3.510628181,-1.066175651,0.5412266,-1.1194105,1.237613,36.332302,95.58146,-5.567573
2.39E+12,3.965087,-4.17431726,3.190555049,-1.138820584,0.6401868,-0.96486163,1.3475688,36.033253,96.3577,-6.354027
2.39E+12,3.969989,-3.135100054,1.545880928,-0.411368549,0.79717916,-0.8918633,1.3390167,35.752235,97.171135,-7.1711264
2.39E+12,3.97497,-2.086718112,-0.049926201,0.325744418,1.0522153,-0.75869465,1.2831224,35.545574,82.04363,-7.9537334
2.39E+12,3.98003,-1.109454779,-0.798894405,1.05068153,1.2046263,-0.67256266,1.104139,35.351055,81.28271,-8.706432
2.39E+12,3.984949,-0.159423489,-1.526992152,1.755417826,1.5577064,-0.675617,0.92087936,35.12395,80.73225,-9.220005
2.39E+12,3.99003,0.916073077,-2.215626409,2.33902562,1.933083,-0.73456544,0.73823065,34.906036,80.20295,-9.682549
2.39E+12,3.994999,2.014912916,-2.857385848,2.837658816,2.251344,-0.840856,0.5925393,34.674084,79.674706,-10.102273
2.39E+12,4.000003,2.782565343,-3.365151733,2.726002297,2.4807239,-0.9993755,0.49754974,34.34569,79.28158,-10.2674055
2.39E+12,4.004992,3.327588216,-3.781351,2.215662675,2.604424,-1.1749994,0.4456262,33.978943,78.83801,-10.38956
2.39E+12,4.009993,3.289526984,-4.211757182,1.091988831,2.6939158,-1.3359623,0.41233405,33.52171,78.43972,-10.272255
2.39E+12,4.015103,2.963213197,-4.658039368,-0.357228615,2.7421741,-1.518611,0.3817908,33.00133,77.95525,-10.113831
2.39E+12,4.02008,2.498634459,-5.287149919,-1.976611396,2.8478537,-1.6749926,0.3848451,32.45635,77.43923,-9.861448
2.39E+12,4.024996,1.963740473,-6.009256747,-3.683814574,2.9752192,-1.6847663,0.44165558,31.891928,76.840225,-9.588753
2.39E+12,4.030006,1.342197114,-6.927846757,-4.780547436,3.1242702,-1.5280794,0.6035349,31.417192,76.39039,-9.359578
2.39E+12,4.035001,0.653509379,-8.008634528,-5.2932929,3.2614095,-1.4175128,0.8481864,30.916916,75.86176,-9.156008
2.39E+12,4.040001,0.052849161,-9.088825682,-4.831344764,3.4089334,-1.4349225,1.1230757,30.5552,75.458244,-9.133404
2.39E+12,4.044998,-0.493476513,-10.16734755,-3.776371249,3.5717292,-1.6218473,1.4404203,30.15938,74.97043,-9.182445
2.39E+12,4.049999,-0.969086701,-11.65431088,-2.478665447,3.681074,-2.0289888,1.7376062,29.746078,74.45431,-9.404324
2.39E+12,4.055566,-1.443229131,-13.62631219,-0.846106774,3.7210855,-2.4712553,1.9764545,29.256186,73.87849,-9.677793
2.39E+12,4.060001,-1.337901832,-14.91548282,-0.271076647,3.6835175,-2.5970936,2.0653355,28.702774,73.12128,-10.028506
2.39E+12,4.065066,-0.967623003,-16.24192502,0.010147776,3.5375206,-2.3157902,2.0595322,28.13502,72.36951,-10.403373
2.39E+12,4.069989,-0.465953394,-17.20226294,0.016800273,3.4037411,-2.0772474,2.0772474,27.462807,71.461464,-10.769244
2.39E+12,4.074995,0.16374665,-17.90137836,-0.201363526,3.4058793,-1.4999796,2.1025982,26.970085,70.57785,-11.1617775
2.39E+12,4.080014,0.577614617,-18.34495985,-0.017267638,3.5979962,-0.89980453,2.1175644,26.50921,69.75544,-11.441688
2.39E+12,4.084998,0.848834406,-18.62005447,0.424433126,3.9370265,-0.40225476,2.0885482,26.184448,68.914505,-11.745813
2.39E+12,4.09004,1.106773593,-18.88132737,0.966072022,4.2632284,-0.129198,2.0363193,25.931934,68.13742,-11.954005
2.39E+12,4.094998,1.268496402,-19.04305004,2.028821706,4.5017715,-0.2666427,1.9538525,25.706753,67.31703,-12.151217
2.39E+12,4.099997,1.397429706,-19.19844611,3.00856732,4.6853366,-0.34880406,1.8020525,25.514206,66.42989,-12.2597065
2.39E+12,4.104998,1.168213823,-19.27346242,3.025237552,4.6569314,-0.1881465,1.5070046,25.372015,65.57718,-12.321773
2.39E+12,4.110002,0.938860438,-19.34852373,3.041917785,4.480391,0.15424347,1.058324,25.1988,64.65946,-12.249825
2.39E+12,4.115075,0.715852319,-19.39926204,2.925013112,4.2858305,0.4859433,0.5296202,25.11157,63.81067,-12.106365
2.39E+12,4.119955,0.503721304,-19.44168811,2.778878426,4.2039747,0.72784597,0.022907447,25.1446,63.036034,-11.892728
2.39E+12,4.125674,0.509495293,-19.46709776,3.088902024,4.2012258,0.75716746,-0.38789943,25.269415,62.321327,-11.643165
2.39E+12,4.130057,0.555885207,-19.48256097,3.405899775,4.2201624,0.49938235,-0.70249504,25.433445,61.667664,-11.296943
2.39E+12,4.134999,0.720296056,-19.49527714,4.058317067,4.21497,-0.07880162,-0.9718866,25.588242,61.051365,-10.881714
2.39E+12,4.140022,0.95092609,-19.50552757,4.888585038,4.1642685,-1.1734722,-1.1545353,25.573175,60.45696,-10.322103
2.39E+12,4.144972,1.077510366,-19.51155298,6.592545171,3.9910882,-3.0604348,-1.1246029,25.18801,59.84317,-9.558679
2.39E+12,4.150013,1.173967307,-19.51637542,8.613317395,3.381139,-4.5668287,-0.9053023,24.631353,59.349148,-8.710861
2.39E+12,4.154996,1.179301767,-19.52109227,7.275337586,2.9119947,-4.8380527,-0.6411031,23.855377,58.765194,-7.752188
2.39E+12,4.159993,1.155734659,-19.52580627,4.862069387,2.7895162,-4.1712933,-0.42180246,22.933683,58.224453,-6.7806053
2.39E+12,4.16503,1.779934705,-18.97401853,4.670105831,2.7837129,-3.2333097,-0.25411993,21.904646,57.560806,-5.826392
2.39E+12,4.170041,2.64464809,-18.21573087,5.321966642,2.821892,-2.802039,-0.020158553,20.906237,56.90568,-4.988592
2.39E+12,4.175011,2.944077402,-17.42584597,6.401214582,2.833193,-2.0738876,0.08674286,20.313566,56.467403,-4.4221973
2.39E+12,4.180103,2.812675938,-16.5868982,7.846630684,2.85946,-1.59558,0.30451632,19.717607,56.003475,-3.9755967
2.39E+12,4.185004,2.530673752,-15.83799133,8.738489938,2.778826,-1.3509285,0.4596761,19.131845,55.453133,-3.4669032
2.39E+12,4.190029,2.15352308,-15.10328212,9.370339831,2.5372288,-1.2959507,0.61911196,18.587782,54.94362,-3.063123
2.39E+12,4.195312,1.587618131,-14.0961435,9.445021077,2.1841488,-1.4077389,0.816116,17.998325,54.3141,-2.7197967
2.39E+12,4.200004,1.017174965,-13.10766564,9.275194231,1.7760907,-1.4535538,0.9841039,17.42647,53.78135,-2.4306579
2.39E+12,4.204995,0.430678302,-12.01058921,9.226123631,1.434617,-1.4492778,1.097114,16.824871,53.2258,-2.2167494
2.39E+12,4.209998,-0.14378114,-10.88066077,9.264104194,1.1404854,-1.393689,1.1313224,16.220972,52.785522,-2.0260751
2.39E+12,4.215075,-0.663405543,-9.829893606,8.991264974,0.8454375,-1.4639386,1.1673635,15.606979,52.382458,-1.9374235
2.39E+12,4.219995,-1.124227379,-8.876312136,8.516755343,0.5112942,-1.711339,1.2388347,14.962997,52.08372,-1.8403484
2.39E+12,4.224995,-1.567634938,-7.954722789,7.725152544,0.13744467,-1.9960022,1.2831224,14.31734,51.778778,-1.813605
2.39E+12,4.230034,-1.991069042,-7.070629243,6.636322353,-0.2180789,-2.2030854,1.2027937,13.655358,51.573017,-1.7403784
2.39E+12,4.235002,-2.41168862,-6.125398352,5.405983772,-0.42943826,-2.4251351,1.072374,12.963247,51.38087,-1.692949
2.39E+12,4.239997,-2.838510292,-5.083586462,3.974066024,-0.5531385,-2.5967882,0.93401295,12.26648,51.270008,-1.5945841
2.39E+12,4.24497,-3.220805743,-4.034845963,2.539080044,-0.62888575,-2.6337454,0.75777835,11.629832,51.234764,-1.522432
2.39E+12,4.249995,-3.528913159,-2.954024382,1.071901599,-0.6603453,-2.575408,0.49113566,11.029421,51.22439,-1.3854475
2.39E+12,4.254997,-3.298630411,-1.88895272,0.076224851,-0.63194007,-2.2815816,0.204029,10.552475,51.265114,-1.3288622
2.39E+12,4.26,-2.230511446,-0.840522657,-0.19449654,-0.6056729,-1.7165314,0.037873644,10.184216,51.31431,-1.3016438
2.39E+12,4.265203,-1.198858924,-0.051045068,-0.388247248,-0.66828656,-1.2672399,0.017715093,9.90967,51.429375,-1.3414533
2.39E+12,4.270026,-0.326554014,0.361531572,-0.474691886,-0.8081747,-1.1044444,0.016493361,9.728225,51.55755,-1.4028807
2.39E+12,4.274973,0.54802564,0.76509422,-0.556779434,-0.8918633,-0.784351,-0.005192355,9.590376,51.72227,-1.3799605
2.39E+12,4.280032,1.231833692,0.972769264,-0.571975178,-1.0607675,-0.45906523,-0.04734206,9.495057,51.949345,-1.3849024
2.39E+12,4.285,1.807298467,1.151387525,-0.601806526,-1.2296717,-0.183565,-0.08552113,9.377469,52.209526,-1.2435614
2.39E+12,4.290039,1.952454964,1.216942099,-0.700138377,-1.3906348,0.009773844,-0.14385876,9.325642,52.51504,-1.1304488
2.39E+12,4.295014,2.074562056,1.285731786,-0.818343516,-1.5402967,0.16523905,-0.22479841,9.293029,52.832924,-0.92791164
2.39E+12,4.300001,2.045138398,1.383810699,-1.088060605,-1.6288722,0.2761111,-0.33964106,9.310141,53.177242,-0.72753865
2.39E+12,4.304999,2.001319407,1.49582288,-1.338865846,-1.6584991,0.38820487,-0.4529566,9.365728,53.545597,-0.5069437
2.39E+12,4.310001,1.888165687,1.674257585,-1.495540192,-1.6410894,0.5174029,-0.5839872,9.472991,53.922894,-0.27430275
2.39E+12,4.315407,1.771961044,1.88409201,-1.670387037,-1.5861117,0.6569856,-0.6646214,9.621885,54.31653,-0.051954262
2.39E+12,4.319991,1.776435665,2.34944814,-1.912014252,-1.5344934,0.8445212,-0.6737844,9.8212185,54.702984,0.1583846
2.39E+12,4.325315,1.775853118,2.894795626,-2.204615553,-1.5030339,1.1313224,-0.5702427,10.079032,55.09049,0.30248788
2.39E+12,4.330017,1.703892894,3.436613389,-2.610978985,-1.5161675,1.5720617,-0.32589662,10.395442,55.474648,0.36378852
2.39E+12,4.334945,1.628473925,4.004473435,-3.036874136,-1.6108516,2.0842721,-0.014049901,10.768062,55.871735,0.33491507
2.39E+12,4.339993,1.389128998,3.612825782,-2.691943846,-1.8185458,2.484389,0.301462,11.180565,56.3062,0.19836956
2.39E+12,4.345091,1.123091924,3.071250315,-2.22637888,-2.1749856,2.6077838,0.5561928,11.612217,56.811974,-0.03223849
2.39E+12,4.350004,0.958458795,1.942326809,-1.683845855,-2.5970936,2.58396,0.7583892,12.071514,57.41108,-0.37968013
2.39E+12,4.354942,0.8104977,0.691817009,-1.120639095,-2.9681942,2.348166,0.9239337,12.48319,58.0992,-0.7648643
2.39E+12,4.359982,0.330955937,-1.081564494,-0.752857798,-3.159395,1.8924606,1.0073168,12.840297,58.842915,-1.1935307
2.39E+12,4.365098,-0.222607975,-2.982738865,-0.42162695,-3.0573804,1.643533,0.95539325,13.19481,59.607662,-1.6240358
2.39E+12,4.369997,-0.812467699,-4.639766536,-0.480070225,-2.9236012,1.2247849,0.8943067,13.394834,60.371586,-2.0204241
2.39E+12,4.374992,-1.440345396,-6.25689038,-0.705925503,-2.6010642,0.9465357,0.7370089,13.595713,61.047604,-2.363657
2.39E+12,4.380723,-1.923338597,-7.492274365,-0.699906658,-2.1255057,0.87995136,0.6133087,13.801733,61.749054,-2.7835202
2.39E+12,4.385002,-2.175223999,-8.130674138,-0.573963952,-1.5479325,0.6844745,0.5674938,13.921794,62.319843,-3.1248329
2.39E+12,4.390012,-2.504464657,-8.555982533,0.689470681,-0.766025,0.2938262,0.6414085,14.04378,62.84527,-3.5692663
2.39E+12,4.394976,-2.846713223,-8.826928781,2.462508091,0.106595986,-0.22357668,0.711658,14.09495,63.166927,-3.9557095
2.39E+12,4.400003,-3.141526275,-8.841136849,3.768086178,0.9370673,-0.6389651,0.75869465,14.087755,63.291573,-4.3660207
2.39E+12,4.404996,-3.40962313,-8.731025902,4.830899068,1.6572775,-0.7476991,0.8689558,14.014114,63.18566,-4.778349
2.39E+12,4.409979,-3.689255734,-8.220811062,5.943236863,2.1978931,-0.7357872,1.0512991,13.8095045,62.56127,-5.2243347
2.39E+12,4.41516,-3.985936262,-7.493464917,7.125173911,2.9471195,-0.7870999,1.2538009,13.547008,61.680756,-5.6682253
2.39E+12,4.419993,-4.501883112,-5.827434156,6.954953588,4.085161,-0.5390886,1.4541647,13.314757,60.28149,-6.2355685
2.39E+12,4.424994,-5.183305386,-3.494352303,5.99374188,5.2629094,0.3304781,1.6691893,13.195913,58.686283,-6.91791
2.39E+12,4.429974,-4.804748494,-1.446617415,3.833752498,5.889352,1.8762726,1.8952094,13.226316,56.45623,-7.8672824
2.39E+12,4.435017,-3.266916573,0.3260924,0.332836014,5.3682837,3.4703255,2.0943515,13.432057,54.32193,-8.979864
2.39E+12,4.440002,-1.746771395,2.078414118,-3.127816112,3.9278636,4.486194,2.3005185,13.86226,52.505356,-10.466927
2.39E+12,4.445015,-0.218087789,3.840578366,-6.607906204,2.1383338,4.5512514,2.3353379,14.401373,50.93559,-12.062418
2.39E+12,4.450626,2.051368362,3.202620021,-7.976470078,0.4361578,3.976122,2.1273382,15.003354,49.73886,-13.699685
2.39E+12,4.455015,4.087230944,1.485122787,-7.867555779,-0.61208695,3.882354,1.8011361,15.723707,48.84867,-15.395879
2.39E+12,4.460016,6.523885069,-2.217911552,-3.927460104,-0.5729916,4.276362,1.3707817,16.618837,48.69484,-16.823147
2.39E+12,4.465038,9.057943693,-7.238396994,2.874487699,0.17531833,4.0350704,0.9147707,17.447605,48.659298,-18.054943
2.39E+12,4.47001,10.51218603,-10.82759766,3.687791633,0.548557,0.732122,0.6081163,17.618761,48.987328,-18.21199
2.39E+12,4.475013,11.12986404,-13.33156692,-0.24158729,1.1093313,-5.0982814,-0.5152648,17.364128,49.245266,-17.617838
2.39E+12,4.480031,10.37796415,-15.02062025,-4.0681044,2.1719313,-6.4989953,-1.582141,16.877663,49.19073,-15.983503
2.39E+12,4.485058,8.448983309,-16.0076361,-7.803200724,0.97066486,-4.877759,-1.9254472,15.818707,49.532925,-13.837018
2.39E+12,4.489956,6.155029016,-16.72682511,-11.10936083,-1.0323622,-2.6233609,-1.6242907,14.984549,50.521275,-11.56976
2.39E+12,4.495018,1.812083889,-16.3162188,-12.94129418,-1.9456058,-0.3659083,-0.95172805,14.486661,51.442345,-9.65547
2.39E+12,4.499947,-1.79850879,-15.75761993,-13.35305028,-2.3958135,1.7800614,-0.19242255,14.736262,53.224247,-8.866399
2.39E+12,4.505017,-4.255502095,-14.86024195,-10.98723485,-2.509129,3.5167513,0.48258355,15.291447,55.04966,-8.529861
2.39E+12,4.509971,-6.209065733,-13.8279992,-8.848954848,-2.266921,4.2977424,0.97402465,16.337402,56.88979,-9.317112
2.39E+12,4.515037,-7.213679909,-12.42733518,-7.047410809,-2.1612413,4.6520443,1.3826935,17.642912,58.63995,-10.390534
2.39E+12,4.520471,-7.900506382,-11.24109042,-4.908671061,-1.9975294,5.0808716,1.6471981,19.18425,59.782124,-11.991782
2.39E+12,4.525004,-7.92122195,-10.69834046,-2.832965325,-1.8939877,5.168836,1.681712,20.755314,60.765526,-13.558584
2.39E+12,4.530029,-7.876885615,-10.24256273,-0.741545745,-1.9419407,4.6196685,1.4300356,22.254232,61.296574,-15.184596
2.39E+12,4.535022,-7.593385689,-10.30871308,0.590904145,-2.065641,3.703676,0.9963212,23.731617,61.73039,-16.673141
2.39E+12,4.539994,-7.208028728,-10.50639765,1.613019842,-2.3426683,2.6774223,0.43554693,24.926113,61.9226,-17.874783
2.39E+12,4.545015,-6.373670332,-11.27549891,1.328685421,-2.7204883,1.7250835,-0.22510384,25.954655,62.20316,-18.798824
2.39E+12,4.549983,-5.540216413,-12.08434201,1.028313269,-3.0705142,1.1374311,-0.8436049,26.72992,62.510643,-19.379856
2.39E+12,4.555015,-4.639369061,-13.24672592,0.587576092,-3.3130276,0.8374963,-1.3646729,27.367891,62.957325,-19.717743
2.39E+12,4.560037,-3.789441841,-14.41270336,0.185734143,-3.3912184,0.72326446,-1.7901406,27.912586,63.722187,-19.67158
2.39E+12,4.565035,-3.23619898,-15.60827059,0.012259702,-3.2953126,0.52778757,-1.9877555,28.35925,64.53347,-19.50241
2.39E+12,4.570038,-2.716542906,-16.75543152,-0.112941258,-3.2192597,0.37873647,-2.372906,28.809357,65.6827,-18.96488
2.39E+12,4.575016,-2.498097417,-17.46300421,0.186234028,-2.9999592,0.2669481,-2.7293458,29.203648,66.79774,-18.370155
2.39E+12,4.579989,-2.29198505,-18.13485609,0.495322944,-2.7882943,0.17440203,-3.0637946,29.545576,68.09725,-17.53436
2.39E+12,4.585024,-2.215228677,-18.43380289,0.919503416,-2.6123652,0.071776666,-3.32891,29.847197,69.39902,-16.625193
2.39E+12,4.590023,-2.139021108,-18.73061223,1.340651019,-2.528066,-0.028710667,-3.4849863,30.08252,70.738716,-15.600097
2.39E+12,4.595022,-2.052977118,-18.94207861,2.150353393,-2.5561657,-0.050701816,-3.5051448,30.299086,72.06436,-14.561368
2.39E+12,4.599995,-1.963269167,-19.11677304,3.11825459,-2.7049112,-0.04886922,-3.3670893,30.475626,73.36317,-13.543059
2.39E+12,4.605012,-1.908544369,-19.2344481,4.616652439,-3.0121765,-0.119729586,-3.0476067,30.568447,74.612785,-12.561642
2.39E+12,4.610062,-1.870229532,-19.32544562,6.369555148,-3.5195,-0.26175576,-2.5149322,30.613728,75.805435,-11.70175
2.39E+12,4.615166,-2.035122409,-19.38372685,7.262274042,-4.0381246,-0.46395215,-1.9141463,30.546503,76.87252,-10.950184
2.39E+12,4.620024,-2.282591231,-19.42422162,7.721216162,-4.480086,-0.634689,-1.4205672,30.425999,77.87075,-10.336433
2.39E+12,4.625013,-2.519344816,-19.45466491,7.311076667,-4.675257,-0.56596667,-0.97402465,30.222809,78.617195,-9.898913
2.39E+12,4.63011,-2.749306941,-19.47813042,6.287979835,-4.574159,-0.26267207,-0.59712076,30.026472,79.242455,-9.596863
2.39E+12,4.635009,-3.024478536,-19.29784309,5.440780495,-4.3869286,0.0888809,-0.31612277,29.840185,79.68905,-9.441304
2.39E+12,4.640097,-3.360767611,-18.92140028,4.687894282,-4.2372665,0.2950479,-0.119729586,29.692451,80.00878,-9.377258
2.39E+12,4.644994,-3.706743427,-18.78949675,4.012500079,-4.184427,0.32436943,-0.061391957,29.62974,80.26028,-9.3734665
2.39E+12,4.650122,-4.085707701,-18.82350653,3.342024986,-4.1300597,0.34972036,-0.20555615,29.62236,80.44053,-9.370881
2.39E+12,4.655016,-4.437684589,-18.84549174,2.943262959,-3.9187005,0.35216382,-0.45753807,29.638924,80.54401,-9.3887205
2.39E+12,4.660022,-4.79012539,-18.85977968,2.724178149,-3.5946364,0.35308012,-0.71837753,29.659737,80.629,-9.361429
2.39E+12,4.665045,-4.915205551,-18.51913283,2.773202575,-3.376863,0.36926803,-0.83291477,29.70034,99.342064,-9.336846
2.39E+12,4.67018,-4.847608583,-17.86730294,3.053247778,-3.3594534,0.5332854,-1.0458013,29.781301,99.26412,-9.2092905
2.39E+12,4.675014,-4.33156648,-17.20422974,3.345085118,-3.3389895,0.96577793,-1.1969905,29.943336,99.25157,-9.101754
2.39E+12,4.680106,-3.350022292,-16.45789444,3.679805219,-3.297756,1.461495,-1.3356569,30.166714,99.22462,-8.934044
2.39E+12,4.685018,-2.255898206,-15.59397795,3.932747065,-3.1722233,1.9315559,-1.4672983,30.491026,99.19549,-8.735795
2.39E+12,4.690029,-0.866313693,-14.44539159,4.060937375,-2.963002,2.486527,-1.557401,30.976778,99.16617,-8.503176
2.39E+12,4.694994,0.150556929,-13.36662949,4.225673176,-2.7522533,3.036611,-1.6190983,31.593443,99.03657,-8.150375
2.39E+12,4.700025,0.778011625,-12.33988533,4.434824742,-2.5909848,3.3945782,-1.7088956,32.30366,98.89255,-7.7625895
2.39E+12,4.705664,0.7419932,-10.71969113,4.409055263,-2.4336872,3.523776,-1.7369953,33.11465,98.65013,-7.262207
2.39E+12,4.710026,0.17130971,-9.121777487,4.198075385,-2.262034,3.4837644,-1.6939293,33.966393,98.411644,-6.762826
2.39E+12,4.715395,-0.514640939,-7.244206896,3.914641385,-2.0766363,3.3945782,-1.5919148,34.825863,98.12863,-6.2534227
2.39E+12,4.72006,-0.984167282,-6.297701431,3.486105474,-1.8600847,3.2953126,-1.4953982,35.656025,97.842026,-5.7697926
2.39E+12,4.725011,-1.482479163,-5.293167979,3.031297049,-1.6676621,3.1844406,-1.3820826,36.359894,97.66397,-5.585067
2.39E+12,4.730062,-1.955444508,-4.123622783,2.829272983,-1.4395039,2.980717,-1.2907583,36.99414,97.46136,-5.4408064
2.39E+12,4.73504,-2.401797106,-2.890153566,2.77647852,-1.2684617,2.663067,-1.235475,37.55094,97.257835,-5.336918
2.39E+12,4.740034,-2.876174984,-1.936892425,2.63436146,-1.1047498,2.1905627,-1.1691961,37.972435,97.1525,-5.397214
2.39E+12,4.745009,-3.362800552,-1.137436187,2.445670003,-0.95081174,1.6487253,-1.0708468,38.279114,97.05117,-5.4975405
2.39E+12,4.750154,-3.822026893,-0.60739173,2.0205492,-0.7699956,1.1459832,-0.95569867,38.634495,96.98381,-5.3998017
2.39E+12,4.754966,-4.236779236,-0.211072818,1.545888082,-0.5861252,0.91996306,-0.8597928,38.91376,96.907005,-5.337777
2.39E+12,4.759992,-4.461776801,0.109631101,1.098061621,-0.3463606,0.5882632,-0.8026769,39.05473,96.87023,-5.323818
2.39E+12,4.765077,-4.608085967,0.397677089,0.663706588,-0.22968534,0.2959642,-0.6960809,39.145138,96.857315,-5.362298
2.39E+12,4.769908,-4.518825277,0.694101875,0.367718244,-0.022296581,0.07727446,-0.5742133,39.177437,96.89366,-5.484395
2.39E+12,4.775283,-4.249090406,1.040903968,0.125507273,0.08246681,-0.12889257,-0.4034765,39.13368,96.97136,-5.6640744
2.39E+12,4.779979,-3.905455321,1.3897677,0.173009851,0.14569137,-0.28405234,-0.2098322,39.057964,97.12195,-5.917628
2.39E+12,4.784995,-3.503749872,1.77712639,0.306911627,0.21105394,-0.4550946,-0.01863139,38.923893,97.30973,-6.2307262
2.39E+12,4.789953,-3.058500986,2.188467557,0.540461345,0.31337386,-0.58246,0.14782938,38.773964,97.530365,-6.5658355
2.39E+12,4.794932,-2.591981887,2.612999964,0.815707645,0.4456262,-0.6985244,0.28160888,38.58328,97.79467,-6.955497
2.39E+12,4.799924,-2.174249169,2.791940075,0.783741273,0.58276546,-0.8142834,0.4034765,38.364735,98.045715,-7.3336496
2.39E+12,4.804917,-1.782306513,2.843265951,0.59243594,0.6942484,-0.9468411,0.51893,38.11125,98.338326,-7.7555976
2.39E+12,4.809917,-1.497233455,2.681449728,0.281096127,0.788627,-1.0516045,0.6047566,37.829044,98.58797,-8.137947
2.39E+12,4.815113,-1.273259926,2.36983427,-0.123030115,0.89980453,-1.1111639,0.6453791,37.522217,98.87047,-8.545143
2.39E+12,4.819957,-0.942223503,1.773136627,-0.222336945,1.0497719,-1.1429288,0.6215554,37.201298,99.12292,-8.900472
2.39E+12,4.824956,-0.512711178,0.937204069,-0.125350294,1.269378,-1.133155,0.5345071,36.874588,99.383415,-9.251467
2.39E+12,4.829982,0.096875282,0.101103156,0.218083663,1.5732834,-1.0384709,0.4456262,36.580597,99.62273,-9.556707
2.39E+12,4.834986,0.880628877,-0.727013827,0.804666551,1.9306396,-0.90102625,0.36346483,36.301884,99.85796,-9.839355
2.39E+12,4.839954,1.763246706,-1.46381282,1.43249872,2.2812762,-0.7174612,0.2996294,36.052315,79.99991,-10.00008
2.39E+12,4.844947,2.734055361,-2.135911119,2.099929722,2.5234842,-0.5369505,0.2666427,35.84099,79.83178,-10.143848
2.39E+12,4.849959,3.564598615,-2.636987137,2.521615152,2.6627617,-0.3408628,0.28496864,35.609196,79.607666,-10.244531
2.39E+12,4.854953,4.250762373,-2.965774045,2.697921065,2.6832256,-0.2434298,0.3576616,35.39141,79.28997,-10.33651
2.39E+12,4.859958,4.410113948,-3.283481056,2.595993145,2.652377,-0.08124508,0.41233405,35.220074,79.054855,-10.194598
2.39E+12,4.865075,4.025715169,-3.596069152,2.203145957,2.6328292,-0.019242255,0.48349985,35.02631,78.69561,-10.061989
2.39E+12,4.869942,3.493552854,-3.942230408,1.501113054,2.6215281,-0.02107485,0.5112942,34.826683,78.309135,-9.802333
2.39E+12,4.874998,2.144753168,-4.535282384,-0.797619431,2.6676486,-0.001221731,0.537256,34.623943,77.81573,-9.546458
2.39E+12,4.880025,1.005591647,-5.276891248,-3.108934359,2.8228083,0.20586158,0.6026186,34.513603,77.24061,-9.369534
2.39E+12,4.885006,0.259460783,-6.299677401,-5.447929015,3.066849,0.6374379,0.72173727,34.452175,76.57863,-9.213866
2.39E+12,4.890058,-0.520609348,-7.342760695,-7.64190701,3.3658676,1.1410962,0.91690874,34.652508,76.016426,-9.336887
2.39E+12,4.895002,-1.565192383,-8.432542157,-7.636884875,3.6932912,1.2305881,1.20371,34.84166,75.355606,-9.519385
2.39E+12,4.900002,-2.611868043,-9.470801784,-7.199779365,3.8615847,0.5720753,1.6459764,35.155376,74.84866,-10.011802
2.39E+12,4.905,-3.613473064,-10.21583764,-4.782111988,3.915341,-0.75686204,2.1337523,35.285645,74.23447,-10.563179
2.39E+12,4.910011,-4.62477339,-11.2787362,-2.54540857,3.95016,-2.2440135,2.5549438,35.221325,73.43352,-11.341538
2.39E+12,4.915079,-5.670275627,-13.36513533,-0.882737508,3.8902953,-3.457192,2.8194485,34.843018,72.57661,-12.137541
2.39E+12,4.919972,-6.638772288,-15.26571004,0.585984588,3.7174203,-4.266283,2.8872545,34.042118,71.36885,-12.997776
2.39E+12,4.924993,-7.346497385,-16.42015534,1.138110499,3.5833356,-4.544532,2.7748554,33.0527,70.182785,-13.795907
2.39E+12,4.930032,-7.753464804,-17.44466441,1.532962063,3.5161405,-4.2180247,2.617863,31.976141,68.86153,-14.591351
2.39E+12,4.935008,-7.090294493,-17.98554756,1.363642023,3.5042286,-3.5127807,2.4917192,30.95595,67.63454,-15.305485
2.39E+12,4.939995,-6.268758102,-18.49983847,1.255626513,3.549738,-2.758973,2.3759604,30.087048,66.420204,-16.006277
2.39E+12,4.945,-4.7636387,-18.89544428,1.414778106,3.6114354,-2.1768184,2.237294,29.392622,65.289665,-16.651081
2.39E+12,4.949993,-3.346376039,-19.26400442,1.545883205,3.7555995,-1.7104226,2.0277672,28.819902,64.27358,-17.14949
2.39E+12,4.955002,-2.911116041,-19.32814785,1.353452495,4.003,-1.4810427,1.7201965,28.370327,63.29869,-17.583292
2.39E+12,4.960482,-2.411113053,-19.395998,1.198172206,4.0982947,-0.80481493,1.2959507,28.07055,62.51611,-17.741055
2.39E+12,4.965077,-1.74686244,-19.42897515,1.636294954,4.3032403,-0.61483586,1.0433578,27.716967,61.691814,-17.830833
2.39E+12,4.969979,-1.016831706,-19.46209452,2.176856032,4.3600507,-0.3286455,0.45234573,27.635302,61.053284,-17.745749
2.39E+12,4.974998,-0.102520798,-19.47993463,3.300789479,4.482835,-0.41538838,-0.18600847,27.543339,60.406857,-17.564037
2.39E+12,4.980014,0.811243601,-19.49776407,4.424051118,4.509407,-0.8219192,-0.8002335,27.438166,59.858192,-17.12098
2.39E+12,4.985008,1.525306242,-19.50792481,6.033128012,4.443434,-1.8472565,-1.2278391,27.207605,59.358215,-16.485939
2.39E+12,4.990283,2.222622648,-19.5179165,7.523983865,4.1465535,-3.642284,-1.4065173,26.721773,58.93904,-15.618781
2.39E+12,4.994978,2.337836041,-19.5221842,6.529734538,3.6089919,-5.557652,-1.3399329,25.846931,58.53657,-14.37635
2.39E+12,5.000007,2.461245658,-19.52675549,5.464754801,3.109915,-6.9253793,-1.1175779,24.572485,58.049984,-12.825901
2.39E+12,5.005002,3.168424923,-19.36296641,3.469896215,2.747061,-7.110777,-0.7858781,23.141537,57.58815,-11.250257
2.39E+12,5.010005,3.92632654,-19.18463625,1.39235382,2.654515,-6.171266,-0.36560285,21.656496,57.106853,-9.752861
2.39E+12,5.015077,4.399236691,-19.07995942,1.151654527,2.6957483,-4.649906,0.24587326,20.249311,56.6855,-8.494302
2.39E+12,5.019952,4.771541037,-19.0005345,1.439569669,2.9556715,-3.0946434,1.0161743,19.01694,56.173843,-7.546602
2.39E+12,5.025,4.174852153,-19.06397911,2.962645327,3.3142493,-1.9434677,1.6062702,18.001072,55.76055,-6.8259625
2.39E+12,5.030053,3.445701362,-19.14704665,4.651690473,3.4752123,-1.1823297,1.8955148,17.198444,55.30372,-6.404827
2.39E+12,5.03501,2.737079804,-18.66139045,6.213370041,3.3948836,-0.9147707,2.0277672,16.45309,54.76658,-6.1335783
2.39E+12,5.039946,2.033102647,-18.03827533,7.74499599,3.1743612,-1.0546589,2.1841488,15.745804,54.216805,-5.989727
2.39E+12,5.045002,1.344241854,-17.26454098,8.244467459,2.7876835,-1.1728612,2.2898283,15.103266,53.597237,-5.985025
2.39E+12,5.049955,0.677462767,-16.47274079,8.46672729,2.359467,-1.1972959,2.355191,14.435387,53.058643,-5.9958076
2.39E+12,5.055003,0.246447072,-15.43386217,8.18159327,1.9819523,-1.271516,2.3848178,13.722565,52.447285,-6.063136
2.39E+12,5.059995,-0.09785545,-14.33006868,7.73096212,1.8054122,-1.3228287,2.425746,13.003599,51.90923,-6.141738
2.39E+12,5.065092,-0.151902804,-12.96214653,7.501882967,1.4654657,-1.348485,2.3765712,12.314693,51.450344,-6.2912703
2.39E+12,5.070049,-0.161128778,-11.59670328,7.312750513,1.1746938,-1.5054774,2.3399193,11.5823765,51.035564,-6.4116397
2.39E+12,5.075002,-0.239599354,-10.22104563,6.541852419,0.87598073,-1.853976,2.3124304,10.821511,50.679935,-6.5365143
2.39E+12,5.080022,-0.334738555,-8.82422894,5.629380968,0.5549711,-2.1826215,2.232407,10.053872,50.42433,-6.6084814
2.39E+12,5.085007,-0.61704744,-7.154713038,4.626235878,0.3182608,-2.382069,2.0677788,9.24436,50.14672,-6.6183205
2.39E+12,5.090057,-1.035393528,-5.264408784,3.541634802,0.21319197,-2.5378397,1.8069394,8.414178,49.938377,-6.531771
2.39E+12,5.095001,-1.46303565,-3.53575373,2.639366204,0.1777618,-2.4602597,1.5005904,7.6384034,49.759342,-6.4460835
2.39E+12,5.100009,-1.903261085,-1.832272612,1.78762577,0.096516706,-2.490803,1.2040154,6.8602247,49.640312,-6.2534866
2.39E+12,5.105,-2.037001633,-0.322879295,1.2697611,-0.005192355,-2.2724187,0.8570439,6.2535563,49.49443,-6.1292763
2.39E+12,5.110009,-2.046492224,1.114946252,0.885391825,-0.06291912,-2.0711386,0.64476824,5.6752305,49.36951,-5.958888
2.39E+12,5.115102,-1.852988341,1.867345591,0.416533202,-0.2602286,-1.7641789,0.4981606,5.236718,49.26798,-5.8836656
2.39E+12,5.12007,-1.57721695,2.297361986,-0.074246377,-0.47586402,-1.4453071,0.36285394,4.8886547,49.19719,-5.8046927
2.39E+12,5.125,-1.153974196,2.665432494,-0.487243289,-0.65179324,-1.040609,0.17287487,4.5907917,49.18579,-5.780331
2.39E+12,5.130022,-0.644636106,3.009707387,-0.869246865,-0.7703011,-0.5992588,0.040011674,4.3858852,49.21918,-5.8085794
2.39E+12,5.135006,0.219203501,3.414738151,-0.930749804,-0.904386,-0.06627888,-0.089186326,4.3104377,49.324665,-5.8556924
2.39E+12,5.140032,1.316388531,3.86315284,-0.79240908,-1.0925325,0.5308419,-0.06963864,4.343008,49.474987,-6.0028095
2.39E+12,5.145003,1.97424649,3.87865199,-0.51852942,-1.3063353,0.8564331,0.018020526,4.414402,49.67937,-6.1032314
2.39E+12,5.150009,2.347534279,3.604592584,-0.149966786,-1.5131133,0.947452,0.007635816,4.580467,49.93589,-6.254822
2.39E+12,5.155002,2.337373227,3.394715405,-0.049462283,-1.7088956,0.94714653,-0.03634648,4.7014575,50.197075,-6.251224
2.39E+12,5.159996,2.033863013,3.23347566,-0.153793924,-1.7779233,0.88422745,-0.172264,4.848124,50.483402,-6.2281485
2.39E+12,5.165075,1.744299036,3.17900174,-0.379672277,-1.8808541,0.81581056,-0.30726522,4.967523,50.818485,-6.10668
2.39E+12,5.169996,1.478647815,3.211625556,-0.691929027,-1.9281962,0.7180721,-0.4529566,5.09362,51.16134,-5.9322877
2.39E+12,5.175,1.268445674,3.314230696,-0.954419144,-1.9168952,0.62796944,-0.5748242,5.251051,51.544006,-5.7816567
2.39E+12,5.180015,1.1121271,3.480023114,-1.167580782,-1.8707749,0.57604593,-0.65179324,5.413246,51.932053,-5.5944033
2.39E+12,5.185006,0.925980138,3.664255569,-1.446135041,-1.8637499,0.6081163,-0.68875057,5.6162934,52.362534,-5.4481306
2.39E+12,5.190036,0.707526144,3.869334698,-1.793878144,-1.9013181,0.8081747,-0.6252206,5.841847,52.789703,-5.3240986
2.39E+12,5.194975,0.500760495,3.744329259,-2.172927272,-2.0451767,1.0680978,-0.6038403,6.1139574,53.255672,-5.2339325
2.39E+12,5.2,0.305970202,2.960042107,-2.6342728,-2.2925773,1.3234396,-0.60903263,6.4249735,53.759174,-5.1823044
2.39E+12,5.205002,0.429161619,1.882213805,-2.630449774,-2.4956899,1.5430456,-0.6420194,6.8131704,54.314785,-5.223886
2.39E+12,5.209998,0.925169977,0.456189898,-2.081978964,-2.6053402,1.6710218,-0.61361414,7.231284,54.912804,-5.3027143
2.39E+12,5.215075,1.47287798,-1.079261818,-1.720236185,-2.7574458,1.7186694,-0.5183192,7.7092223,55.6891,-5.453636
2.39E+12,5.219996,2.053330935,-2.665537914,-1.591738909,-2.8997774,1.7464638,-0.38820487,8.205457,56.492397,-5.632963
2.39E+12,5.224948,2.466997453,-4.143616332,-1.370144427,-2.9217684,1.6016886,-0.22021692,8.549844,56.973827,-5.7270403
2.39E+12,5.230019,2.516371134,-5.397708865,-0.940593143,-2.791654,1.2822062,-0.043676864,8.834167,57.437847,-5.83349
2.39E+12,5.234945,2.340914241,-6.469218581,-0.566341981,-2.5445592,0.88025683,0.0888809,9.070073,58.30029,-5.7447968
2.39E+12,5.240006,1.738852727,-7.293092187,-0.263047799,-2.1398609,0.39736784,0.15515977,9.190183,59.06656,-5.6212234
2.39E+12,5.244955,1.092913422,-8.082502796,0.053921865,-1.5470163,-0.059253927,0.18112154,9.208682,59.77819,-5.42715
2.39E+12,5.249997,0.215528371,-8.824520183,0.455012164,-0.9416488,-0.23671028,0.13561209,9.17533,60.362514,-5.202986
2.39E+12,5.254943,-0.589625845,-9.561523315,1.078264778,-0.34972036,-0.48441613,0.095294975,9.050723,60.803413,-5.0345283
2.39E+12,5.259999,-1.268346633,-10.3386092,2.312749755,-0.039095376,-0.8176431,0.06688975,8.862313,61.147774,-4.823275
2.39E+12,5.265083,-1.806720914,-10.97114792,3.602593319,0.58459806,-1.2428054,0.08368854,8.639909,61.21271,-4.736905
2.39E+12,5.269995,-2.04751556,-11.29372172,4.942865253,1.2709051,-1.7278323,0.1731803,8.311682,61.166794,-4.6087103
2.39E+12,5.274966,-2.29253702,-11.55735605,6.186689057,2.0818288,-2.1135938,0.35094208,7.8940897,60.747036,-4.5750437
2.39E+12,5.280015,-2.545570636,-11.6289693,7.098565177,3.3368514,-2.3215933,0.56779927,7.3873134,60.011566,-4.5252533
2.39E+12,5.28499,-3.007060339,-10.73636926,7.252975785,5.2161784,-1.9321668,0.7791586,6.8824677,58.63595,-4.567136
2.39E+12,5.290035,-4.219006944,-6.453839032,4.800340832,6.9537845,-0.70341134,0.9810496,6.514238,56.976498,-4.7440257
2.39E+12,5.295005,-5.120615349,-2.462507369,2.064508681,7.5475454,1.2534955,1.2773192,6.360282,54.974545,-5.201653
2.39E+12,5.300004,-4.923125426,0.692515238,-1.894924247,6.574743,3.3664784,1.668273,6.479578,52.993454,-5.9492717
2.39E+12,5.305006,-4.331940786,3.407601835,-5.725645857,4.364938,5.032919,1.9382755,7.0082316,51.04924,-7.363425
2.39E+12,5.310001,-2.358716285,4.566479446,-9.090418442,1.6814066,5.7946677,1.8933768,7.776813,49.5524,-9.02201
2.39E+12,5.315131,-0.234992833,5.320827104,-11.73270282,-0.42943826,6.3252044,1.5723672,8.975152,48.808193,-11.070802
2.39E+12,5.320005,2.565846919,2.524944876,-7.687596501,-1.1420126,6.8581843,1.0958922,10.406128,48.400436,-13.240859
2.39E+12,5.325,5.583282185,-0.737844265,-3.196797082,-0.8481864,6.808093,0.2657264,12.005894,48.671574,-14.979037
2.39E+12,5.330015,9.207120098,-5.620091189,2.707315588,-0.2782491,5.0292535,-0.38606682,13.450954,49.074802,-16.44301
2.39E+12,5.335006,12.47594891,-10.04882624,6.772564358,0.09896017,1.065349,-0.77671516,14.095815,49.43059,-16.559662
2.39E+12,5.340005,14.09766403,-12.37975881,1.984215369,0.4428773,-5.2164836,-2.0442605,14.044158,49.83495,-15.6230955
2.39E+12,5.345149,15.29823407,-14.69620303,-2.913940775,1.473407,-6.0283237,-2.7189612,13.655276,49.735996,-13.791652
2.39E+12,5.350004,11.08943174,-15.94576675,-7.205078547,-0.061391957,-5.2338934,-2.5124888,12.286662,50.14997,-11.155862
2.39E+12,5.354969,6.769617908,-17.01299599,-10.91028876,-0.9859365,-2.8002062,-1.5143349,11.502287,50.953278,-8.6516
2.39E+12,5.360001,2.27888633,-16.57896333,-9.750004416,-2.0451767,-0.23762658,-0.6337727,10.879387,52.06868,-6.419708
2.39E+12,5.365087,-2.260036724,-16.14027293,-8.577268695,-2.0323486,1.4511104,0.23396139,10.829151,53.57259,-5.5745683
2.39E+12,5.369995,-4.652737291,-13.6348112,-7.095555375,-0.93218035,1.9892827,0.9434814,10.956763,54.96777,-5.1548386
2.39E+12,5.374992,-6.718290897,-10.90801095,-5.468722597,-0.04734206,2.4972172,1.4477507,11.367131,56.333416,-5.1721153
2.39E+12,5.380011,-7.026894067,-8.823883337,-2.898438883,0.2443461,3.5570683,1.6517797,12.247567,57.34422,-6.27843
2.39E+12,5.384958,-7.331070173,-6.769653552,-0.365027141,0.10262536,4.722294,1.568702,13.290745,57.813362,-7.828459
2.39E+12,5.390038,-6.829940367,-5.135725317,2.37350853,-0.5671884,5.2164836,1.2342533,14.463328,58.290718,-9.391381
2.39E+12,5.394987,-6.144580956,-3.659179143,5.074630417,-1.491122,4.8899765,0.7162395,15.789015,58.833633,-10.903427
2.39E+12,5.400002,-5.271872092,-3.586981068,5.809148655,-2.2348504,4.019188,0.087964594,16.989368,58.907475,-12.309999
2.39E+12,5.404943,-4.397317327,-3.63350001,6.367375034,-2.7605,2.993545,-0.5317582,18.148333,59.181915,-13.495837
2.39E+12,5.409998,-3.394758251,-4.990956642,5.257998469,-3.193909,2.1826215,-1.0622946,19.00348,59.339836,-14.261991
2.39E+12,5.415072,-2.373743884,-6.531931972,3.915553803,-3.4941492,1.7852536,-1.4761559,19.76194,59.647858,-14.804514
2.39E+12,5.420002,-1.630832414,-8.738118099,2.263305358,-3.5992181,1.6841555,-1.8719965,20.360281,60.081055,-14.957754
2.39E+12,5.424945,-0.93113237,-11.078664,0.543620099,-3.5934148,1.7107282,-2.2317963,20.929592,60.603935,-14.974994
2.39E+12,5.430026,-0.718128818,-13.12442214,-0.75563025,-3.5121698,1.8515326,-2.5011878,21.605701,61.527515,-14.717892
2.39E+12,5.434949,-0.563980831,-15.06940717,-1.966145465,-3.2653801,2.1346686,-2.6975808,22.349808,62.433914,-14.403489
2.39E+12,5.440007,-1.09363099,-16.26848837,-2.02540424,-2.8426614,2.3212879,-2.8900034,23.249006,63.75657,-13.852748
2.39E+12,5.445002,-1.760584105,-17.28547393,-1.83619766,-2.499966,2.3484714,-3.093727,24.181915,65.04988,-13.251397
2.39E+12,5.450003,-2.47672609,-17.89306837,-1.3112819,-2.3542747,2.336865,-3.1694744,25.22799,66.53463,-12.586978
2.39E+12,5.454967,-3.198745445,-18.40133128,-0.712765922,-2.3402247,2.2522602,-3.2620203,26.252787,67.97168,-11.852105
2.39E+12,5.460008,-3.80684536,-18.70307173,0.290721667,-2.3942864,2.121535,-3.2394185,27.260666,69.33367,-11.1903305
2.39E+12,5.465104,-4.390785693,-18.95533471,1.402544303,-2.4972172,1.9361374,-3.0531044,28.193087,70.65841,-10.532881
2.39E+12,5.469999,-5.198590387,-19.10942747,3.220284947,-2.6254988,1.7009543,-2.636189,29.038002,71.8386,-10.013259
2.39E+12,5.474966,-6.108586875,-19.23351753,5.339014082,-2.8347201,1.4639386,-2.0494528,29.779575,72.97387,-9.576056
2.39E+12,5.479999,-6.844766355,-18.88215816,6.773547015,-3.211013,1.1175779,-1.4107933,30.352812,73.92409,-9.308781
2.39E+12,5.485027,-7.478146294,-18.26920992,7.815558706,-3.6862664,0.679893,-0.7883216,30.780235,74.82074,-9.174767
2.39E+12,5.490031,-7.734434417,-17.65827184,7.659787895,-4.0317106,0.20158553,-0.31123585,31.010344,75.35386,-9.270559
2.39E+12,5.494977,-7.877302338,-17.05414462,7.153626982,-4.216192,-0.18906279,-0.01740966,31.103094,75.848694,-9.454892
2.39E+12,5.500014,-8.009570335,-16.65805662,6.585842526,-4.3139305,-0.47067168,0.08277224,31.0463,76.11146,-9.791982
2.39E+12,5.505002,-8.124088816,-16.5385583,5.958480908,-4.3896775,-0.70341134,0.028710667,30.873978,76.34834,-10.130897
2.39E+12,5.510023,-8.071033572,-16.59413275,5.527888105,-4.4495425,-0.7883216,-0.15577064,30.679708,76.56205,-10.483527
2.39E+12,5.515066,-7.866113966,-16.80836736,5.276395592,-4.4385467,-0.82741696,-0.4447099,30.432415,76.77082,-10.768039
2.39E+12,5.519997,-7.306867978,-16.93913251,5.068744589,-4.332562,-1.0143417,-0.73364913,30.141014,77.006966,-10.992296
2.39E+12,5.524998,-6.306344453,-16.97671113,4.904339412,-4.177707,-0.9584476,-0.979217,29.913715,77.249176,-11.146844
2.39E+12,5.530001,-5.177471844,-16.79762202,4.458924678,-3.8835757,-0.46486846,-1.1148291,29.768492,77.514534,-11.217685
2.39E+12,5.535008,-3.864606395,-16.3083246,3.611133499,-3.585779,0.41355577,-1.1658363,29.755035,77.76681,-11.249386
2.39E+12,5.539998,-2.5702617,-15.7686333,3.157511546,-3.5304956,1.5384641,-1.2131784,29.95052,78.139404,-11.1389675
2.39E+12,5.545004,-1.29028155,-15.1586791,3.217582726,-3.5631769,2.032654,-1.2846496,30.215015,78.47549,-11.01151
2.39E+12,5.549959,-0.191147477,-14.47433166,3.5525493,-3.440393,2.6771169,-1.3231341,30.855423,78.92309,-10.765217
2.39E+12,5.555001,0.612901314,-13.62695089,4.409559492,-3.2937853,2.9126055,-1.4138476,31.512526,79.35831,-10.48313
2.39E+12,5.560002,1.242047084,-12.72423804,5.044356011,-2.9642236,3.114802,-1.496009,32.338367,79.86506,-10.071804
2.39E+12,5.565076,1.565258819,-11.69188985,5.285558648,-2.6844473,3.2421672,-1.5861117,33.199394,80.35456,-9.634045
2.39E+12,5.569976,1.716880052,-10.73953664,5.342500121,-2.499966,3.1963525,-1.6450601,34.043682,80.85552,-9.14442
2.39E+12,5.574999,1.550872328,-9.852580924,5.048429423,-2.270586,3.114191,-1.6423112,34.89914,98.66155,-8.656399
2.39E+12,5.580006,0.977526576,-8.714177102,4.564025635,-2.0066924,3.0543263,-1.5858061,35.71629,98.21529,-8.202155
2.39E+12,5.585008,-0.506565283,-7.008773499,3.65274121,-1.7272215,3.0531044,-1.4740179,36.507435,97.79757,-7.7782817
2.39E+12,5.590042,-1.941751566,-5.370100388,2.842782228,-1.4321736,2.990491,-1.320996,37.238922,97.47425,-7.454968
2.39E+12,5.594979,-2.876556781,-4.391476158,2.915813783,-1.1154399,2.676506,-1.2208142,37.87761,97.17561,-7.1630483
2.39E+12,5.600016,-3.802158193,-3.416997705,2.962803842,-0.763887,2.1481075,-1.1282681,38.350502,97.32142,-7.3207216
2.39E+12,5.604999,-4.571926059,-2.577251091,2.866582801,-0.44318274,1.5140295,-1.0558805,38.690926,82.48944,-7.504391
2.39E+12,5.610574,-5.408841585,-1.643382274,2.74520656,-0.14630222,0.90133166,-0.96944314,39.034245,82.4683,-7.5187025
2.39E+12,5.615071,-5.86279675,-0.941433,2.522432307,0.07391469,0.44012842,-0.850019,39.236145,82.400055,-7.570156
2.39E+12,5.619962,-6.356524726,-0.177983167,2.28013992,0.2144137,0.053450707,-0.7189884,39.33006,82.26041,-7.689246
2.39E+12,5.624999,-6.393004223,0.371282368,2.027781091,0.3115413,-0.19517145,-0.54153204,39.331284,82.052925,-7.8623457
2.39E+12,5.63,-6.388359675,0.896105688,1.776980553,0.32650748,-0.45845437,-0.3567453,39.217453,81.78781,-8.079602
2.39E+12,5.635008,-6.190998576,1.364997206,1.644613043,0.36102137,-0.6969972,-0.17959438,39.06306,81.40724,-8.408416
2.39E+12,5.639969,-5.965597976,1.820698518,1.531912692,0.4196644,-0.80848014,0.019547688,38.868774,80.95254,-8.802279
2.39E+12,5.645006,-5.690303952,1.905795826,1.244048598,0.5213735,-1.0097603,0.1151481,38.592396,80.4661,-9.223655
2.39E+12,5.649957,-5.415719004,1.956989642,0.946193784,0.5674938,-1.1551461,0.30970868,38.2971,79.8852,-9.736177
2.39E+12,5.655002,-5.085795965,1.6388409,0.661487019,0.65301496,-1.1646146,0.47769663,37.985657,79.292305,-10.249131
2.39E+12,5.660003,-4.75197985,1.273447454,0.381803119,0.754724,-1.0742066,0.6197228,37.65852,78.636734,-10.81605
2.39E+12,5.665086,-4.302910576,0.668724257,0.29750606,0.84329945,-0.95294976,0.7189884,37.34604,77.97977,-11.387931
2.39E+12,5.669957,-3.840905609,0.021917492,0.274405827,0.9071349,-0.92057395,0.75411314,37.032585,77.28542,-11.987889
2.39E+12,5.675,-3.261503332,-0.471568926,0.274782679,0.9505063,-1.0030408,0.76144356,36.728798,76.627205,-12.554713
2.39E+12,5.68001,-2.650324139,-0.899840538,0.283704997,0.98624194,-1.1685852,0.788627,36.40951,75.942,-13.140057
2.39E+12,5.685006,-2.072246949,-1.374532971,0.310985033,1.073901,-1.3063353,0.79290307,36.068424,75.32957,-13.63166
2.39E+12,5.690034,-1.511930599,-1.884821008,0.351007631,1.2134838,-1.3891076,0.786489,35.695873,74.69895,-14.125543
2.39E+12,5.694975,-1.030297837,-2.426326346,0.348082956,1.4138476,-1.4086553,0.75777835,35.29044,74.1436,-14.501702
2.39E+12,5.700003,-0.574492954,-2.997281948,0.324093223,1.6584991,-1.3646729,0.6927212,34.883575,73.5749,-14.860613
2.39E+12,5.705003,-0.172333304,-3.558034051,0.236093869,1.9416351,-1.2812898,0.6151413,34.48685,72.96357,-15.158506
2.39E+12,5.710039,0.206463629,-4.119214726,0.114504735,2.240043,-1.2125676,0.5555819,34.1069,72.336685,-15.425015
2.39E+12,5.715088,0.432706263,-4.941096703,-0.294644215,2.5127943,-1.2843442,0.5158757,33.705177,71.82978,-15.528239
2.39E+12,5.720002,0.557611444,-5.9019058,-0.871129678,2.7669141,-1.4749341,0.50701815,33.29112,71.28221,-15.606591
2.39E+12,5.725262,0.609872506,-6.809017239,-1.624474134,2.987742,-1.6804903,0.52381694,32.84397,70.80534,-15.561457
2.39E+12,5.730022,0.61885842,-7.572820838,-2.370305942,3.1496212,-1.8680259,0.6221663,32.34328,70.26507,-15.51418
2.39E+12,5.734976,0.396553998,-8.433353995,-2.739417218,3.247054,-2.0894647,0.8005389,31.808151,69.78426,-15.420493
2.39E+12,5.740005,0.021432052,-9.349236329,-2.851466654,3.2849278,-2.2107213,1.0122037,31.24074,69.24743,-15.345964
2.39E+12,5.744975,-0.436329579,-10.29818381,-2.686851752,3.2696562,-2.513405,1.1111639,30.622143,68.80202,-15.245706
2.39E+12,5.749986,-0.948925054,-11.28065848,-2.359360179,3.2556064,-2.874121,1.2980887,29.933012,68.28644,-15.203973
2.39E+12,5.754966,-1.171964788,-12.27305911,-2.373570827,3.2436945,-3.1963525,1.4526376,29.202684,67.779625,-15.188364
2.39E+12,5.76013,-1.210836597,-13.31287907,-2.616519472,3.2531629,-3.303254,1.5329664,28.426918,67.25356,-15.181298
2.39E+12,5.765074,-0.746078501,-14.06368644,-2.77381798,3.2943962,-3.0729575,1.5610662,27.668612,66.675514,-15.238099
2.39E+12,5.769925,0.042295764,-14.63834496,-2.87830129,3.3872478,-2.6810875,1.6166549,26.923294,66.071594,-15.318616
2.39E+12,5.774905,0.648331089,-15.17870356,-2.490722331,3.6007452,-2.2708917,1.6505579,26.274675,65.51103,-15.394467
2.39E+12,5.779954,1.126837705,-15.69339967,-1.766930819,3.8860192,-1.9065105,1.6212363,25.727964,64.91993,-15.49272
2.39E+12,5.784996,1.543284773,-16.2597237,-0.90687917,4.168239,-1.6200147,1.5451837,25.227541,64.394135,-15.445017
2.39E+12,5.79029,1.74038914,-17.0590914,0.533077567,4.3811255,-1.4159856,1.4639386,24.809937,63.8243,-15.413953
2.39E+12,5.794958,1.818074432,-17.68543901,1.570711035,4.471228,-1.1707232,1.3585643,24.388744,63.222267,-15.215245
2.39E+12,5.799948,1.732747214,-18.21747908,2.273405812,4.4984117,-0.9077458,1.2391402,24.040245,62.59429,-15.020289
2.39E+12,5.804851,1.626709319,-18.61944516,2.731300377,4.506353,-0.7483099,1.0815369,23.648823,61.88563,-14.694182
2.39E+12,5.809938,1.486980331,-18.87481246,2.895120493,4.515516,-0.57543504,0.8875872,23.356533,61.183445,-14.373025
2.39E+12,5.815158,1.25296425,-19.07759868,2.846039652,4.4929137,-0.40744713,0.7199047,23.087688,60.446583,-14.025714
2.39E+12,5.821397,0.8396305,-19.23259838,2.467150422,4.4431286,-0.11148291,0.5112942,22.93524,59.738346,-13.675501
2.39E+12,5.824898,0.611681355,-19.29879145,2.389299964,4.3994517,0.25717425,0.23243423,22.877777,59.037945,-13.334476
2.39E+12,5.82997,0.287793144,-19.36163519,2.490817043,4.3069053,0.44868052,0.004581489,22.876896,58.376,-12.990026
2.39E+12,5.834909,0.100641123,-19.41312172,3.027029055,4.0552287,0.25473082,-0.13561209,22.941181,57.793156,-12.693368
2.39E+12,5.839954,0.174914743,-19.4456166,4.480006844,3.6465602,-0.076358154,-0.13775012,23.031895,57.283432,-12.3952
2.39E+12,5.844925,0.179126187,-19.47335909,5.797000808,3.402214,-1.5231925,0.006108652,22.805178,56.763695,-11.976618
2.39E+12,5.849957,-0.026687372,-19.48841892,6.780889947,2.6899452,-3.1697798,0.47311515,22.398983,56.439934,-11.564296
2.39E+12,5.854919,-0.238588995,-19.5013508,6.926380247,2.1138992,-4.2174134,0.8582657,21.676847,56.001747,-10.972443
2.39E+12,5.859938,-0.471365163,-19.51047898,5.374539381,1.8875736,-4.353942,1.0644327,20.7458,55.631054,-10.355829
2.39E+12,5.865133,-0.622383939,-19.51878602,3.988661685,1.9285016,-3.692375,1.1227703,19.698126,55.22279,-9.778633
2.39E+12,5.870002,-0.515765182,-19.5234222,3.297957562,2.10046,-2.9804115,1.1756102,18.622145,54.82689,-9.252858
2.39E+12,5.874992,-0.335636007,-19.37930992,2.799952206,2.2672265,-2.665205,1.3292428,17.686396,54.532085,-8.915413
2.39E+12,5.88001,0.092579957,-18.71533427,3.03090018,2.3160956,-2.4333818,1.5360206,16.892008,54.21897,-8.705019
2.39E+12,5.885018,0.466372874,-17.71160543,3.535454848,2.3112087,-2.1288655,1.6643023,16.197828,53.923378,-8.582756
2.39E+12,5.89001,0.66083774,-15.57691141,4.949744843,2.3041837,-1.9135354,1.7849482,15.5089445,53.60504,-8.5281725
2.39E+12,5.895108,0.792398257,-13.49126891,6.278950148,2.3112087,-1.9019289,1.915368,14.763018,53.218544,-8.447591
2.39E+12,5.90001,0.215603014,-12.47601555,6.349290959,2.2473733,-2.147802,2.1038198,13.982722,52.84926,-8.396846
2.39E+12,5.905,-0.371546774,-11.4425365,6.420894518,2.0109684,-2.4932466,2.2589796,13.05663,52.245766,-8.276506
2.39E+12,5.909985,-0.958108236,-10.41009301,6.49242633,1.6988163,-2.7177396,2.3258693,12.096643,51.691246,-8.147844
2.39E+12,5.915126,-1.586641283,-9.295014635,6.529696283,1.3747523,-2.7421741,2.2699752,11.099586,51.209053,-7.9949465
2.39E+12,5.920004,-2.432305664,-7.705748838,6.179766315,1.1111639,-2.6621506,2.0604484,10.104188,50.81665,-7.795782
2.39E+12,5.925004,-3.195861182,-6.071826519,5.796629586,0.9263771,-2.5696046,1.7776178,9.210299,50.30998,-7.769718
2.39E+12,5.930012,-3.314610896,-4.404579993,5.259880757,0.75625116,-2.5714374,1.4691309,8.372181,49.900017,-7.679927
2.39E+12,5.935011,-3.359728082,-2.770880139,4.748756066,0.6026186,-2.4443772,1.1496484,7.7445574,49.37734,-7.727295
2.39E+12,5.939998,-2.867744587,-1.364549787,4.419219807,0.4120286,-2.3423629,0.9053023,7.1730437,48.945107,-7.710038
2.39E+12,5.945095,-2.335754653,0.03009254,4.058089736,0.28893927,-2.2348504,0.8063421,6.58839,48.56613,-7.722814
2.39E+12,5.950008,-1.487527111,0.883006382,3.430120255,0.011301007,-2.2058344,0.64599,6.074205,48.304543,-7.6726213
2.39E+12,5.955107,-0.638310711,1.737699362,2.780586553,-0.23335053,-2.123673,0.54336464,5.51922,48.037453,-7.5689993
2.39E+12,5.959981,-0.211292531,2.177528078,2.18703127,-0.47494772,-1.96271,0.47861293,5.0148263,47.851547,-7.460951
2.39E+12,5.965084,0.235788671,2.638021706,1.565588387,-0.6899723,-1.7892243,0.38912117,4.484004,47.737183,-7.2030993
2.39E+12,5.970003,0.561456615,2.817614578,0.979418852,-0.88331115,-1.5946637,0.27672195,4.0120955,47.68476,-6.961931
2.39E+12,5.974952,0.874728445,2.962201571,0.391431776,-1.0656544,-1.3536774,0.17654006,3.6046126,47.688923,-6.7475357
2.39E+12,5.979987,0.986768226,3.083716415,-0.026837285,-1.208597,-1.0574077,0.06352998,3.2476432,47.7627,-6.480135
2.39E+12,5.984967,1.072311275,3.200775328,-0.418534374,-1.3393221,-0.7611381,-0.03940081,2.9609423,47.88397,-6.239581
2.39E+12,5.990032,1.057713985,3.480807691,-0.72695254,-1.4584408,-0.48624873,-0.14721853,2.7443812,48.087696,-5.978042
2.39E+12,5.995032,1.01443657,3.802983881,-1.005851345,-1.568091,-0.23671028,-0.21960606,2.5992987,48.32485,-5.7525144
2.39E+12,6.000011,0.925564643,4.078553932,-1.375406756,-1.6789632,0.005192355,-0.26908615,2.5292323,48.627033,-5.5508356
2.39E+12,6.00497,0.825230733,4.341333188,-1.767186764,-1.7922786,0.30787608,-0.2687807,2.5306466,48.95916,-5.401084
2.39E+12,6.009982,0.701406439,4.480398621,-2.09121629,-1.8823812,0.66798115,-0.21746802,2.6040983,49.3133,-5.324593
2.39E+12,6.015088,0.569373964,4.588853803,-2.402435755,-1.9785925,1.0775663,-0.13347405,2.749023,49.698048,-5.318945
2.39E+12,6.020004,0.499970895,4.513635425,-2.711585806,-2.101682,1.4899004,-0.034208454,2.9748862,50.127705,-5.4281716
2.39E+12,6.024992,0.450145334,4.373218117,-3.02865749,-2.3032675,1.8887954,0.07849618,3.2726612,50.601948,-5.630185
2.39E+12,6.030013,0.576424196,3.847950468,-3.242477492,-2.574797,2.2110267,0.17501289,3.650747,51.149696,-5.950971
2.39E+12,6.035006,0.810721359,3.089031327,-3.390186526,-2.8435776,2.334727,0.25259277,4.0619106,51.748512,-6.328568
2.39E+12,6.039998,1.278161635,2.011072537,-3.200189524,-3.0439415,2.468201,0.28099802,4.5646715,52.452377,-6.795737
2.39E+12,6.04503,1.831684677,0.811772629,-2.88943967,-3.114802,2.4856107,0.344528,5.059146,53.18827,-7.288948
2.39E+12,6.050007,1.934719607,-0.489506382,-2.562414846,-3.1908545,2.3261747,0.4978552,5.528714,54.050045,-7.7460613
2.39E+12,6.054999,1.897057413,-1.831221289,-2.228163209,-3.1435125,2.0182989,0.6646214,5.9666924,54.888798,-8.19842
2.39E+12,6.060008,1.587960068,-3.205101079,-1.936514052,-2.967278,1.6844609,0.7837401,6.295462,55.68392,-8.492738
2.39E+12,6.06508,1.170298513,-4.606907738,-1.658072932,-2.7284296,1.4193454,0.852157,6.5571146,56.431633,-8.774531
