timestamp,rel_time,acc_x,acc_y,acc_z,gyro_x,gyro_y,gyro_z,azimuth,pitch,roll
3.292E+12,0,0.638734158,1.083635123,9.414227905,-0.12583824,-0.05467244,0.01160644,215.54378,56.812492,23.606281
3.29201E+12,0.005022,0.669273184,1.078725807,9.446968502,-0.13439035,-0.06047566,0.008857546,216.29819,56.455315,23.412245
3.29201E+12,0.009928,0.709255179,1.073728064,9.466959369,-0.13164146,-0.04917465,0.006414085,217.04776,56.08714,23.224407
3.29202E+12,0.014945,0.714552618,1.068894518,9.50112529,-0.1441642,-0.058643065,0.007635816,217.81189,55.70102,23.00223
3.29202E+12,0.019962,0.709797392,1.064139292,9.539167397,-0.13469578,-0.05100725,0.015577064,218.5708,55.301376,22.783396
3.29203E+12,0.024955,0.710414141,1.042260279,9.541155091,-0.14721853,-0.0571159,0.013439035,219.36975,54.894314,22.503475
3.29203E+12,0.030003,0.712702058,1.014805239,9.532003232,-0.14813483,-0.05009095,0.017104227,220.15614,54.475956,22.227049
3.29204E+12,0.035002,0.714967767,0.9876167,9.522940208,-0.14263703,-0.0571159,0.014355334,220.96936,54.04508,21.892733
3.29204E+12,0.040499,0.717459185,0.957719641,9.512974326,-0.13958271,-0.07422013,0.009162978,221.7624,53.605824,21.569756
3.29205E+12,0.044995,0.720949693,0.95348225,9.504390782,-0.15271631,-0.07422013,0.010079277,222.53983,53.161373,21.25572
3.29205E+12,0.050049,0.725931798,0.963446486,9.494426885,-0.14477506,-0.076052725,0.020158553,223.29517,52.704906,20.954653
3.29206E+12,0.055044,0.730232087,0.943309609,9.485826327,-0.13744467,-0.08155051,0.017715093,224.03574,52.255787,20.660788
3.29206E+12,0.06,0.734108168,0.904548751,9.478074001,-0.14019357,-0.073303826,0.012217305,224.764,51.802727,20.374697
3.29207E+12,0.064997,0.743063701,0.8707832,9.468637216,-0.1328632,-0.06658431,0.01740966,225.47601,51.34304,20.102516
3.29207E+12,0.069926,0.779228485,0.866262606,9.450554933,-0.12583824,-0.07452556,0.02107485,226.17543,50.878853,19.843952
3.29208E+12,0.075038,0.816015778,0.859925382,9.434006652,-0.11759156,-0.0729984,0.009773844,226.86496,50.413933,19.593458
3.29208E+12,0.079977,0.84261434,0.833326824,9.445405871,-0.10293079,-0.06505715,0.009162978,227.54117,49.945107,19.350468
3.29209E+12,0.084909,0.869175205,0.806765963,9.456788933,-0.09621128,-0.05955936,0.004886922,228.21677,49.47478,19.120802
3.29209E+12,0.089928,0.892958943,0.790117885,9.469020787,-0.08827003,-0.052534413,0.004886922,228.552825,49.23520456,19.00979565
3.2921E+12,0.094924,0.914095956,0.781663102,9.481703247,-0.08155051,-0.047036625,-0.001527163,228.88734,48.996727,18.899298
3.2921E+12,0.099918,0.947867883,0.782027263,9.507957174,-0.0729984,-0.04886922,-0.006414085,229.54771,48.51692,18.689766
3.29211E+12,0.104847,1.010743819,0.802985859,9.565593483,-0.0720821,-0.031154128,-0.009773844,230.2089,48.03363,18.488054
3.29211E+12,0.109845,1.06475466,0.826558165,9.61684366,-0.06414085,-0.025961773,-0.009773844,230.86113,47.5437,18.301203
3.29212E+12,0.114891,1.108642166,0.852890687,9.660731166,-0.0571159,-0.029321533,-0.017104227,231.51036,47.05272,18.123962
3.29212E+12,0.119805,1.159062862,0.895074301,9.749997457,-0.046120327,-0.0290161,-0.018936822,232.14523,46.539196,17.982672
3.29213E+12,0.124855,1.231718755,0.983299302,9.967964648,-0.056505036,-0.03573562,-0.014355334,232.77274,46.03115,17.849012
3.29213E+12,0.12982,1.293004681,1.055513417,9.879842054,-0.06811147,-0.03268129,-0.01038471,233.39844,45.505264,17.736652
3.29214E+12,0.134867,1.34058704,1.107854007,9.351678323,-0.076052725,-0.04428773,-0.013439035,234.01538,44.983753,17.632877
3.29214E+12,0.139806,1.357286462,1.150094537,9.179034677,-0.06688975,-0.054061573,-0.007330383,234.63794,44.422554,17.560562
3.29215E+12,0.144849,1.324464072,1.178228063,9.57759227,-0.06811147,-0.06169739,0.002138028,235.25415,43.870716,17.49154
3.29215E+12,0.149872,1.299325173,1.214264186,9.693608103,-0.07422013,-0.065973446,0.015271631,235.8111,43.355606,17.45767
3.29216E+12,0.154916,1.289727342,1.267051756,9.228117958,-0.062002823,-0.0711658,0.023518313,236.3639,42.839245,17.424133
3.29216E+12,0.159919,1.273627487,1.298303845,9.007129863,-0.07238753,-0.082161374,0.03940081,236.95248,42.305843,17.379015
3.29217E+12,0.164984,1.243429609,1.285361833,9.291853676,-0.05131268,-0.089491755,0.04062254,237.5393,41.76487,17.336123
3.29217E+12,0.16996,1.215561022,1.27510226,9.550157405,-0.05100725,-0.08735373,0.050701816,238.07443,41.271393,17.311125
3.29218E+12,0.174911,1.207347122,1.291530102,9.574798762,-0.05222898,-0.086132,0.0571159,238.60768,40.775257,17.287668
3.29218E+12,0.179874,1.199113314,1.307997762,9.599499843,-0.03970624,-0.07452556,0.057726767,239.1727,40.259357,17.242006
3.29219E+12,0.184917,1.20475994,1.31968164,9.375765791,-0.05009095,-0.070249505,0.06261369,239.73206,39.755226,17.196173
3.29219E+12,0.189855,1.214634703,1.329556403,9.079522911,-0.040317107,-0.06963864,0.06536258,240.29128,39.246624,17.149708
3.2922E+12,0.194905,1.229557804,1.332506529,8.940466545,-0.051923547,-0.06352998,0.06352998,240.85373,38.74581,17.100964
3.2922E+12,0.19993,1.245324101,1.334083157,8.833255734,-0.05100725,-0.053145275,0.06780604,241.41286,38.244606,17.050293
3.29221E+12,0.20495,1.261074711,1.335658216,8.726151601,-0.057726767,-0.047036625,0.06505715,241.94574,37.772022,17.01313
3.29221E+12,0.20994,1.276731194,1.337223863,8.619687532,-0.06658431,-0.044898596,0.06261369,242.47751,37.30367,16.973919
3.29222E+12,0.214935,1.292403364,1.338791078,8.513116786,-0.071776666,-0.04886922,0.064446285,243.01268,36.846706,16.940832
3.29222E+12,0.219925,1.308059847,1.340356725,8.406652717,-0.08582657,-0.042760566,0.063224554,243.55013,36.39717,16.906136
3.29223E+12,0.225749,1.292828297,1.342885698,8.454350425,-0.09437868,-0.043982297,0.062002823,244.08151,35.94963,16.875515
3.29223E+12,0.22994,1.275191085,1.344845386,8.522939503,-0.10262536,-0.043066,0.067500606,244.61174,35.509674,16.842335
3.29224E+12,0.234954,1.254090398,1.347189904,8.604997637,-0.10903945,-0.05009095,0.06963864,245.10895,35.092525,16.83064
3.29224E+12,0.239943,1.233094919,1.349522732,8.686646625,-0.1142318,-0.040927973,0.064751714,245.60913,34.679436,16.814547
3.29225E+12,0.24493,1.199902349,1.347448809,8.720656103,-0.12370021,-0.042455133,0.076052725,246.1011,34.273434,16.79869
3.29225E+12,0.24994,1.160066702,1.343022631,8.729508643,-0.13775012,-0.04886922,0.07452556,246.59744,33.870686,16.784225
3.29226E+12,0.254941,1.115881174,1.326497654,8.722168587,-0.1469131,-0.06536258,0.079107046,247.10493,33.465828,16.756771
3.29226E+12,0.259947,1.066976286,1.29715462,8.697716143,-0.1432479,-0.06352998,0.08460484,247.61328,33.064075,16.726696
3.29227E+12,0.26508,1.033560359,1.275558316,8.740300029,-0.14874569,-0.06963864,0.0983493,248.11679,32.677414,16.692411
3.29227E+12,0.269976,1.015321271,1.261879084,8.836055085,-0.16310102,-0.07391469,0.09865474,248.62143,32.294052,16.659004
3.29228E+12,0.274942,0.991266501,1.235497451,8.92778838,-0.14844026,-0.06872234,0.11056661,249.12178,31.93085,16.632078
3.29228E+12,0.279944,0.96079373,1.194867126,9.014127503,-0.15668693,-0.07269296,0.1160644,249.6203,31.57905,16.6098
3.29229E+12,0.28494,0.945399845,1.168483269,9.121738214,-0.14782938,-0.06841691,0.113926366,250.12929,31.220629,16.57783
3.29229E+12,0.289941,0.940757645,1.152235545,9.244756658,-0.15454891,-0.053145275,0.1282817,250.63231,30.872889,16.541603
3.2923E+12,0.295739,0.935375627,1.133398451,9.387380321,-0.1563815,-0.049480084,0.11575896,251.15063,30.53128,16.509634
3.2923E+12,0.299935,0.931480671,1.119766088,9.490596756,-0.15790866,-0.042455133,0.11636983,251.66302,30.195894,16.470324
3.29231E+12,0.304927,0.91817729,1.104445831,9.553343955,-0.16187929,-0.040011674,0.11575896,252.17676,29.862246,16.434536
3.29231E+12,0.30995,0.894297069,1.090117713,9.543792176,-0.16310102,-0.03390302,0.12217305,252.68811,29.530867,16.396145
3.29232E+12,0.314929,0.885220826,1.084256507,9.546809183,-0.15668693,-0.022907447,0.118202426,253.21347,29.185991,16.354847
3.29232E+12,0.319956,0.89473144,1.089011798,9.565830251,-0.16432275,-0.006108652,0.1255328,253.73346,28.849636,16.309313
3.29233E+12,0.324886,0.901145426,1.080649201,9.569402513,-0.1731803,-0.011301007,0.12461651,254.25174,28.51861,16.26168
3.29233E+12,0.329936,0.903449076,1.053005371,9.550973404,-0.17684549,-0.009773844,0.12675454,254.76794,28.191587,16.208588
3.29234E+12,0.334872,0.905700724,1.025985579,9.53296032,-0.1826487,-0.004886922,0.1160644,255.28522,27.864994,16.16032
3.29234E+12,0.339942,0.908013498,0.998232267,9.514458225,-0.1908954,-0.012522738,0.11911872,255.79384,27.543978,16.114079
3.29235E+12,0.344898,0.915441,0.968624347,9.491983043,-0.18875736,-0.012217305,0.11942416,256.3048,27.222923,16.06783
3.29235E+12,0.349927,0.942552161,0.929189909,9.452548591,-0.18845193,-0.01740966,0.11026118,256.81265,26.90639,16.026907
3.29236E+12,0.354867,0.969183526,0.890453357,9.413812023,-0.18600847,-0.016798794,0.11301007,257.30344,26.60304,15.985565
3.29236E+12,0.359954,0.996607364,0.850564118,9.373922769,-0.16707164,-0.02687807,0.106595986,257.7941,26.295517,15.951629
3.29237E+12,0.365724,1.017194929,0.786643619,9.299734996,-0.17104226,-0.03023783,0.099265605,258.28302,25.996185,15.916422
3.29237E+12,0.369949,1.020915229,0.7196782,9.214167869,-0.17562376,-0.043066,0.09315695,258.76804,25.693645,15.887275
3.29238E+12,0.374939,1.025975601,0.647451012,9.117895885,-0.16126843,-0.04734206,0.093767814,259.2385,25.40645,15.863947
3.29238E+12,0.379939,1.035344462,0.619344546,9.052313807,-0.1423316,-0.050701816,0.09040806,259.70758,25.120134,15.844795
3.29239E+12,0.384924,1.04460601,0.592294019,8.985280901,-0.13805555,-0.05131268,0.0888809,260.1638,24.863672,15.828464
3.29239E+12,0.389946,1.053099553,0.575306914,8.900345467,-0.12492194,-0.046731193,0.090713486,260.6178,24.600626,15.811353
3.2924E+12,0.394917,1.061506842,0.558492319,8.816272579,-0.12186762,-0.047647487,0.07971791,261.06558,24.348856,15.799703
3.2924E+12,0.399975,1.067041273,0.567501835,8.849273239,-0.113926366,-0.05100725,0.08552113,261.50626,24.094662,15.784759
3.29241E+12,0.404927,1.071821468,0.581842439,8.906635778,-0.09865474,-0.04337143,0.08827003,261.94955,23.837385,15.768364
3.29241E+12,0.409963,1.076435841,0.611019349,8.904506838,-0.093767814,-0.04153884,0.08246681,262.37994,23.589785,15.752578
3.29242E+12,0.414955,1.080963055,0.642709879,8.890925384,-0.089491755,-0.053145275,0.08552113,262.80414,23.340134,15.736417
3.29242E+12,0.419947,1.102704528,0.658064676,8.83938446,-0.081855945,-0.044898596,0.08399397,263.23645,23.081783,15.714624
3.29243E+12,0.424905,1.130577598,0.667355699,8.774347152,-0.08674286,-0.03726278,0.07849618,263.6651,22.827044,15.695397
3.29243E+12,0.429933,1.158754464,0.673562239,8.750015861,-0.07727446,-0.04428773,0.079107046,264.08887,22.560493,15.6774
3.29244E+12,0.435,1.187107213,0.678287688,8.745290559,-0.077579886,-0.054367006,0.07238753,264.51428,22.298607,15.658955
3.29244E+12,0.439941,1.206194897,0.682984632,8.75271887,-0.07360926,-0.054061573,0.0711658,264.9194,22.028316,15.638609
3.29245E+12,0.444922,1.22055217,0.68777039,8.767075944,-0.06536258,-0.047036625,0.07086037,265.32355,21.758537,15.6189375
3.29245E+12,0.450003,1.235197684,0.692652228,8.781721254,-0.051923547,-0.054061573,0.0580322,265.7247,21.483917,15.606532
3.29246E+12,0.454944,1.249439661,0.697399554,8.795963033,-0.05222898,-0.053450707,0.0580322,266.1219,21.214197,15.587944
3.29246E+12,0.459976,1.27235086,0.68131774,8.869276848,-0.044593163,-0.057421334,0.048563786,266.52393,20.940468,15.577072
3.29247E+12,0.465022,1.299928157,0.653740443,8.974989924,-0.038789943,-0.0693332,0.043066,266.9217,20.669947,15.566649
3.29247E+12,0.470034,1.324249496,0.664741298,9.015917846,-0.028099801,-0.076358154,0.04062254,267.32303,20.394325,15.561962
3.29248E+12,0.474939,1.345676051,0.705213765,9.006394972,-0.021991149,-0.06841691,0.03359759,267.725,20.120087,15.5559845
3.29248E+12,0.479917,1.367421492,0.746288575,8.99673037,-0.012217305,-0.07788532,0.023823744,268.13443,19.847292,15.565089
3.29249E+12,0.484958,1.389442136,0.787883215,8.986943457,-0.011301007,-0.08399397,0.026267206,268.54068,19.578283,15.568805
3.29249E+12,0.489933,1.414801216,0.826568421,8.996867906,-0.008552114,-0.07544186,0.027488936,268.94763,19.30784,15.570286
3.2925E+12,0.494925,1.442709838,0.863779871,9.02012505,0.003970624,-0.073303826,0.022602014,269.35138,19.036821,15.573533
3.2925E+12,0.499978,1.468562457,0.893954071,9.069592572,0.014049901,-0.07819075,0.019547688,269.75006,18.747456,15.577473
3.29251E+12,0.504907,1.491797369,0.917189007,9.139297308,0.009468411,-0.0720821,0.020158553,270.14758,18.462044,15.576049
3.29251E+12,0.50998,1.510697585,0.940848571,9.203136792,0.013439035,-0.07696902,0.01282817,270.54645,18.163568,15.576401
3.29252E+12,0.515141,1.524989402,0.96466829,9.260303758,0.013744468,-0.06780604,0.010690142,270.94257,17.871658,15.568912
3.29252E+12,0.519938,1.534157873,0.973096633,9.328747743,0.02321288,-0.06047566,0.014966198,271.33923,17.5697,15.561554
3.29253E+12,0.52494,1.538483695,0.964445169,9.419588652,0.020463986,-0.06047566,0.006108652,271.73712,17.273993,15.553331
3.29253E+12,0.529923,1.549449812,0.96093091,9.509033788,0.023518313,-0.06169739,0.002748894,272.13132,16.968502,15.544559
3.29254E+12,0.534962,1.585097972,0.976208715,9.595607701,0.025961773,-0.06078109,0.003359759,272.52374,16.668074,15.533957
3.29254E+12,0.539889,1.611856024,0.990839886,9.644563552,0.03023783,-0.05375614,-0.001527163,272.92163,16.368128,15.519155
3.29255E+12,0.54492,1.621365721,1.005104431,9.616034858,0.034513887,-0.05375614,-0.008857546,273.3158,16.071964,15.504632
3.29255E+12,0.549949,1.625758606,1.019738499,9.594811729,0.023823744,-0.049785517,-0.010995574,273.7194,15.779647,15.494676
3.29256E+12,0.554944,1.618048078,1.035159596,9.590956385,0.03268129,-0.035430185,-0.00702495,274.12015,15.4853945,15.480123
3.29256E+12,0.560322,1.609746332,1.051763131,9.586805425,0.029932396,-0.04184427,-0.01863139,274.52173,15.199005,15.475057
3.29257E+12,0.564941,1.638585482,1.078890461,9.577903269,0.024129177,-0.046120327,-0.015577064,274.91537,14.917001,15.462238
3.29257E+12,0.570271,1.676307707,1.111825868,9.564664453,0.027488936,-0.03970624,-0.01038471,275.30804,14.636863,15.447211
3.29258E+12,0.574907,1.684636766,1.132648514,9.506361132,0.020463986,-0.042455133,-0.016187929,275.69876,14.360643,15.432905
3.29258E+12,0.579903,1.693612601,1.155088103,9.443530375,0.021380283,-0.04795292,-0.013133603,276.07974,14.078978,15.417906
3.29259E+12,0.584957,1.711381233,1.1872949,9.416868652,0.014966198,-0.03481932,-0.02076942,276.46274,13.80442,15.398109
3.29259E+12,0.589874,1.730317244,1.220432969,9.39793274,0.029321533,-0.03940081,-0.012522738,276.8346,13.529743,15.381839
3.2926E+12,0.594916,1.729707357,1.233220586,9.232283406,0.016798794,-0.037873644,-0.010690142,277.20483,13.263797,15.362231
3.2926E+12,0.599965,1.725308807,1.242017686,9.038746827,0.018325957,-0.048258353,-0.007941248,277.5676,12.9950075,15.345226
3.29261E+12,0.604944,1.717668082,1.235749222,8.948839334,0.006414085,-0.03970624,-0.008857546,277.9281,12.729775,15.323217
3.29261E+12,0.609951,1.708257614,1.221633521,8.911197168,0.009162978,-0.030848695,-0.003359759,278.28165,12.465053,15.3020935
3.29262E+12,0.615104,1.695225773,1.217828802,8.854346952,0.008552114,-0.030543262,-0.00702495,278.6244,12.212546,15.284792
3.29262E+12,0.620352,1.679949441,1.220374853,8.785603735,0.008246681,-0.03176499,-0.003054326,278.96063,11.963869,15.263316
3.29263E+12,0.624938,1.666600115,1.222599736,8.725532014,0.007330383,-0.02321288,-0.008552114,279.29245,11.72053,15.238886
3.29263E+12,0.629938,1.652045683,1.225025471,8.660037333,0.00580322,-0.01740966,-0.003359759,279.6167,11.48201,15.213489
3.29264E+12,0.634949,1.637719837,1.216340437,8.67940694,0.011301007,-0.01160644,-0.002748894,279.94144,11.24442,15.185208
3.29264E+12,0.639939,1.623582701,1.202203301,8.740667666,-0.002138028,-0.01282817,-0.005192355,280.26245,11.015981,15.156148
3.29265E+12,0.64499,1.602672987,1.203423825,8.800715684,-0.003665192,-0.008857546,-0.003665192,280.56985,10.787987,15.114898
3.29265E+12,0.649966,1.578470774,1.21310471,8.858801197,-0.01038471,-0.009773844,-0.002138028,280.87485,10.567953,15.074856
3.29266E+12,0.654944,1.543761878,1.210291302,8.856828683,-0.010079277,-0.000916298,-0.010995574,281.1838,10.350862,15.027224
3.29266E+12,0.659975,1.503570162,1.20135982,8.825568308,-0.011301007,-0.01038471,-0.004276057,281.4839,10.140236,14.983643
3.29267E+12,0.664987,1.479152785,1.183970335,8.821166375,-0.013133603,0.001527163,0.004581489,281.79037,9.929469,14.926531
3.29267E+12,0.67003,1.469016191,1.158628797,8.841439457,-0.019242255,-0.001832596,0.001832596,282.09402,9.722762,14.876358
3.29268E+12,0.674937,1.466677602,1.139233387,8.867509714,-0.025961773,-0.007330383,-0.002138028,282.40204,9.525718,14.830673
3.29268E+12,0.679941,1.469029848,1.122767665,8.898089059,-0.018936822,0.008246681,0.001221731,282.70663,9.329312,14.779307
3.29269E+12,0.684944,1.471381624,1.106305234,8.928662293,-0.022907447,0.003054326,0.000305433,283.01086,9.146045,14.732342
3.29269E+12,0.690282,1.473890874,1.088740481,8.961282705,-0.026572637,0.004581489,-0.001527163,283.31256,8.963163,14.678723
3.2927E+12,0.694925,1.465243699,1.071396638,8.999825269,-0.03023783,0.011301007,0.007635816,283.6083,8.784302,14.624395
3.2927E+12,0.700007,1.446856219,1.050710726,9.050390629,-0.03023783,0.016187929,0.003970624,283.9054,8.606495,14.5706
3.29271E+12,0.704914,1.429101917,1.030737139,9.099214757,-0.035430185,0.027488936,0.010690142,284.19556,8.440156,14.515302
3.29271E+12,0.70992,1.410989417,1.010360579,9.149023925,-0.03390302,0.024129177,0.003665192,284.48746,8.272672,14.463411
3.29272E+12,0.714956,1.389292888,0.982606652,9.201998718,-0.042760566,0.03390302,0.016187929,284.76978,8.113327,14.403499
3.29272E+12,0.719939,1.359756405,0.93830183,9.261071992,-0.05100725,0.033292156,0.009468411,285.0562,7.953407,14.348564
3.29273E+12,0.724875,1.326542484,0.903480872,9.325921121,-0.050396383,0.0290161,0.008246681,285.33453,7.8031626,14.280149
3.29273E+12,0.729939,1.28494592,0.884993503,9.40449251,-0.058643065,0.0290161,0.019242255,285.60828,7.6595592,14.211061
3.29274E+12,0.734904,1.235207436,0.869070119,9.477610405,-0.052839845,0.029932396,0.023518313,285.88403,7.5223985,14.13973
3.29274E+12,0.739919,1.158539479,0.85948663,9.53990338,-0.048258353,0.030543262,0.034208454,286.1515,7.390148,14.068553
3.29275E+12,0.744918,1.100148653,0.846415059,9.593488844,-0.055283304,0.033292156,0.03145956,286.42963,7.265482,13.9943695
3.29275E+12,0.749922,1.095434674,0.822845141,9.621772569,-0.047036625,0.03023783,0.03634648,286.69873,7.13735,13.921853
3.29276E+12,0.754896,1.090748957,0.79941653,9.649886726,-0.052839845,0.026572637,0.048563786,286.97345,7.019343,13.839212
3.29276E+12,0.760047,1.085896498,0.77515421,9.679001328,-0.04886922,0.022296581,0.049785517,287.246,6.8962893,13.758991
3.29277E+12,0.764915,1.084751738,0.753137649,9.701733765,-0.041233405,0.019547688,0.048258353,287.50797,6.770651,13.684749
3.29277E+12,0.769919,1.098713759,0.734521622,9.704060817,-0.023823744,0.023518313,0.044898596,287.76675,6.641824,13.610687
3.29278E+12,0.774933,1.112703681,0.715868393,9.70639252,-0.026572637,0.023823744,0.05467244,288.0141,6.5251184,13.53664
3.29278E+12,0.779934,1.12665733,0.697263526,9.708718177,-0.042760566,0.021685716,0.051923547,288.26294,6.4070263,13.463622
3.29279E+12,0.784961,1.139005674,0.679318974,9.710247694,-0.03756821,0.025045475,0.051618114,288.49768,6.282232,13.385796
3.29279E+12,0.789946,1.130550817,0.670864117,9.701793102,-0.025350908,0.028099801,0.050396383,288.73044,6.1606035,13.30989
3.2928E+12,0.794899,1.122150234,0.662463534,9.693392782,-0.02565634,0.028710667,0.047647487,288.94934,6.044803,13.240951
3.2928E+12,0.799888,1.128137913,0.656973944,9.668774381,-0.018936822,0.02687807,0.039095376,289.16763,5.9242535,13.172981
3.29281E+12,0.804809,1.137532398,0.652276701,9.640590829,-0.014355334,0.02321288,0.037873644,289.3819,5.805765,13.106113
3.29281E+12,0.809852,1.135778498,0.655084402,9.564760718,-0.015882496,0.018936822,0.047647487,289.59167,5.690126,13.039992
3.29282E+12,0.814835,1.130893536,0.659969364,9.476831095,-0.014660766,0.021991149,0.03756821,289.80515,5.572189,12.974214
3.29282E+12,0.819847,1.105901238,0.668853687,9.453831265,-0.006108652,0.016798794,0.03573562,290.0064,5.4528933,12.91957
3.29283E+12,0.824815,1.07708092,0.67846046,9.444224793,-0.003054326,0.025350908,0.030543262,290.20975,5.335141,12.860957
3.29283E+12,0.82988,1.089245737,0.688274968,9.42608875,-0.005497787,0.016187929,0.032986723,290.4075,5.2190547,12.811013
3.29284E+12,0.834834,1.108451674,0.697877937,9.406882913,0.001527163,0.022602014,0.017715093,290.61032,5.099214,12.755127
3.29284E+12,0.839859,1.13677171,0.72127439,9.382257433,-0.001221731,0.010079277,0.018936822,290.79498,4.9782763,12.698773
3.29285E+12,0.844862,1.166238378,0.746531496,9.357000239,0.01038471,0.018325957,0.013133603,290.98492,4.8514037,12.635853
3.29285E+12,0.849939,1.19328786,0.774976391,9.33162312,-0.002748894,0.028710667,0.022907447,291.16327,4.7317276,12.577428
3.29286E+12,0.854946,1.218153571,0.804815275,9.306756889,0.005497787,0.026267206,0.014966198,291.3465,4.6029725,12.521386
3.29286E+12,0.859906,1.228959727,0.826542283,9.270923218,0.008552114,0.02107485,0.014355334,291.5284,4.4822903,12.463243
3.29287E+12,0.865048,1.233671612,0.845389841,9.228516356,0.007635816,0.023518313,0.010079277,291.7118,4.361191,12.404429
3.29287E+12,0.869991,1.233487384,0.858097955,9.216729413,0.008246681,0.027488936,0.007635816,291.89117,4.233237,12.35209
3.29288E+12,0.874912,1.230386385,0.867400962,9.222931378,0.018020526,0.016493361,0.003970624,292.06995,4.1043425,12.303752
3.29288E+12,0.879906,1.227239384,0.876841973,9.229225346,0.012217305,0.025045475,0.008552114,292.2469,3.9791589,12.250273
3.29289E+12,0.884932,1.224072219,0.886343479,9.235559644,0.009468411,0.018020526,0.009162978,292.42358,3.8516917,12.204675
3.29289E+12,0.889915,1.22093215,0.895763695,9.241839749,0.012522738,0.022602014,0.013133603,292.59396,3.7219675,12.159796
3.2929E+12,0.894898,1.217792081,0.905183911,9.248119853,0.007941248,0.01740966,0.006414085,292.76514,3.5963616,12.119876
3.2929E+12,0.899984,1.214089225,0.911961934,9.259856168,0.01740966,0.007941248,0.009773844,292.93045,3.468633,12.079641
3.29291E+12,0.904944,1.210030357,0.916020799,9.276091765,0.008552114,0.009468411,0.006719518,293.0979,3.348283,12.037971
3.29291E+12,0.910031,1.205867563,0.920183591,9.292743073,0.008246681,0.009468411,0.010079277,293.25946,3.2192767,11.991042
3.29292E+12,0.914991,1.201808695,0.924242457,9.308978671,0.010995574,-0.001527163,-0.00702495,293.426,3.0923736,11.947428
3.29292E+12,0.91993,1.197767013,0.928284138,9.325145529,0.013744468,0.003054326,-0.000305433,293.58313,2.9690216,11.899157
3.29293E+12,0.924933,1.193271094,0.936609861,9.350788914,0.019547688,-0.000305433,0.000916298,293.7448,2.8445365,11.856752
3.29293E+12,0.929927,1.188705315,0.94574142,9.378183686,0.017715093,0.003970624,-0.002138028,293.9042,2.7233996,11.810969
3.29294E+12,0.934952,1.180260753,0.96989391,9.396165869,0.015271631,0.005192355,-0.002748894,294.06204,2.6021426,11.760131
3.29294E+12,0.939873,1.170685899,0.998618498,9.41052795,0.016187929,0.002443461,-0.001527163,294.2185,2.4822073,11.709641
3.29295E+12,0.94564,1.165498073,1.019926777,9.421182031,0.006414085,0.006414085,-0.00580322,294.3755,2.3614702,11.661474
3.29295E+12,0.949939,1.162800112,1.033416524,9.427926897,0.021685716,0.006414085,-0.009162978,294.5301,2.235522,11.615449
3.29296E+12,0.954942,1.159660336,1.049115338,9.435776296,0.008246681,0.014355334,-0.006414085,294.68658,2.1168008,11.563852
3.29296E+12,0.959977,1.156500478,1.064914564,9.443675901,0.004276057,0.007330383,-0.004581489,294.84247,1.9929317,11.51691
3.29297E+12,0.964988,1.153355681,1.080638481,9.451537851,0.002748894,-0.001832596,-0.003970624,294.99542,1.8758861,11.464318
3.29297E+12,0.969929,1.150254815,1.096142746,9.459289976,0.01038471,-0.005497787,-0.00580322,295.1468,1.7591287,11.412702
3.29298E+12,0.974939,1.143028345,1.11370971,9.427848756,0.005192355,-0.003970624,-0.003970624,295.2952,1.6483887,11.362627
3.29298E+12,0.979957,1.133775167,1.132216067,9.376956661,0.000916298,-0.000916298,-0.002748894,295.4426,1.5368847,11.313578
3.29299E+12,0.984953,1.140727752,1.142306131,9.353874813,-0.000610865,-0.008246681,-0.007941248,295.59595,1.418594,11.2642145
3.29299E+12,0.989938,1.158549674,1.1467616,9.349419251,-0.006719518,-0.01282817,-0.012217305,295.74698,1.3047715,11.213676
3.293E+12,0.994963,1.178886515,1.147304797,9.346007979,-0.004886922,-0.009468411,-0.013439035,295.89902,1.1876816,11.162943
3.293E+12,0.999991,1.202097455,1.143084626,9.343897849,-0.002138028,-0.012217305,-0.007330383,296.04834,1.0739731,11.115595
3.29301E+12,1.00498,1.225128358,1.138897189,9.341804087,-0.008246681,-0.014355334,-0.018936822,296.21185,0.967591,11.07316
3.29301E+12,1.01,1.248302367,1.134683733,9.339697315,-0.003359759,-0.007635816,-0.009468411,296.36554,0.86040604,11.0289545
3.29302E+12,1.016005,1.273266906,1.131856781,9.336938597,-0.010079277,-0.017104227,-0.013133603,296.52148,0.75476795,10.99348
3.29302E+12,1.019951,1.26972818,1.146011721,9.333399797,-0.003970624,-0.014966198,-0.014966198,296.6724,0.64638937,10.952786
3.29303E+12,1.024878,1.265309705,1.163685667,9.32898123,-0.009468411,-0.007941248,-0.013439035,296.818,0.54802763,10.920622
3.29303E+12,1.029925,1.27464286,1.170121224,9.340065139,-0.005192355,-0.013744468,-0.008552114,296.9613,0.44682008,10.891374
3.29304E+12,1.034921,1.288671137,1.172459266,9.356431531,-0.017104227,0.000610865,-0.003665192,297.10242,0.35326344,10.854284
3.29304E+12,1.039952,1.30279769,1.174813687,9.372912579,-0.016798794,0.002443461,0.002443461,297.23633,0.2521697,10.816891
3.29305E+12,1.044982,1.316921436,1.177167641,9.389390352,-0.02107485,0.006108652,-0.001527163,297.37024,0.15695238,10.775171
3.29305E+12,1.049972,1.324746536,1.181094436,9.404289277,-0.022602014,0.00580322,-0.001221731,297.4996,0.06292611,10.7343855
3.29306E+12,1.054972,1.329480496,1.185828396,9.418490958,-0.027488936,0.007635816,0.001527163,297.62787,-0.02760592,10.692307
3.29306E+12,1.060061,1.343064517,1.178607831,9.414661886,-0.035124753,0.01038471,0.001527163,297.6879506,-0.072208644,10.66921167
3.29307E+12,1.06495,1.36068792,1.165390233,9.401444518,-0.03573562,0.004886922,0.009162978,297.74567,-0.11505846,10.647024
3.29307E+12,1.069923,1.376456747,1.161118081,9.387874604,-0.03359759,0.007330383,0.006719518,297.86417,-0.20304017,10.600364
3.29308E+12,1.074946,1.390285062,1.165727584,9.374046193,-0.032986723,0.003359759,0.011911872,297.97614,-0.28797865,10.557663
3.29308E+12,1.079915,1.394193619,1.160330316,9.36209744,-0.04428773,0.003665192,0.006414085,298.0856,-0.36842507,10.518056
3.29309E+12,1.084987,1.384433038,1.140809104,9.35233691,-0.043066,0.002748894,0.003054326,298.19174,-0.4508108,10.480431
3.29309E+12,1.089965,1.385357569,1.136360669,9.35116229,-0.029626964,0.01160644,0.01160644,298.29404,-0.53247976,10.442438
3.2931E+12,1.094973,1.399784706,1.150787806,9.360780332,-0.036957346,0.003665192,0.00702495,298.39993,-0.60823804,10.409891
3.2931E+12,1.099895,1.40958734,1.153403191,9.367914247,-0.030543262,0.005192355,0.006108652,298.49988,-0.6863318,10.372254
3.29311E+12,1.104979,1.41385012,1.14061512,9.372176804,-0.027794369,0.005192355,0.006719518,298.59958,-0.76031744,10.337731
3.29311E+12,1.109971,1.415757547,1.129258232,9.378108955,-0.034513887,0.013133603,0.00580322,298.70352,-0.83217835,10.302238
3.29312E+12,1.114992,1.405615042,1.124187032,9.393322871,-0.03848451,0.01160644,0.009468411,298.8048,-0.90414184,10.269841
3.29312E+12,1.119882,1.398578627,1.122675965,9.404789896,-0.02565634,0.008857546,0.011301007,298.9041,-0.97524446,10.236952
3.29313E+12,1.12498,1.40009608,1.131780698,9.406307222,-0.02076942,0.006414085,0.010995574,299.0018,-1.0419153,10.204824
3.29313E+12,1.129925,1.401567991,1.140612181,9.407779011,-0.024129177,0.010690142,0.01160644,299.10056,-1.1064966,10.170822
3.29314E+12,1.134912,1.403052404,1.149518674,9.4092633,-0.01985312,0.011911872,0.011301007,299.19855,-1.1736442,10.13874
3.29314E+12,1.139915,1.404541579,1.158453742,9.410752351,-0.035430185,0.006108652,0.012522738,299.29483,-1.2331616,10.107847
3.29315E+12,1.144934,1.406035517,1.167417386,9.412246164,-0.026267206,0.004276057,0.020158553,299.3882,-1.2995669,10.075899
3.29315E+12,1.149985,1.40753898,1.176438179,9.413749501,-0.024740042,0.012522738,0.018936822,299.47903,-1.362652,10.0453
3.29316E+12,1.15492,1.4000181,1.179890405,9.415944146,-0.031154128,0.018325957,0.021991149,299.56543,-1.4244502,10.016263
3.29316E+12,1.15993,1.390497385,1.18227059,9.41832438,-0.050701816,0.019547688,0.021685716,299.65216,-1.482184,9.986468
3.29317E+12,1.164988,1.380885454,1.184673579,9.42072742,-0.038789943,0.010995574,0.01863139,299.73495,-1.5528555,9.955161
3.29317E+12,1.169911,1.371530069,1.187012432,9.423066321,-0.031154128,0.009162978,0.021380283,299.81522,-1.6155577,9.922148
3.29318E+12,1.174974,1.377138694,1.183696453,9.427405727,-0.035430185,0.01038471,0.02076942,299.901,-1.6740592,9.890171
3.29318E+12,1.179905,1.386608904,1.178961348,9.432140931,-0.03604105,0.01038471,0.019547688,299.98523,-1.7346746,9.859486
3.29319E+12,1.184994,1.386797604,1.168750397,9.414761232,-0.03145956,0.013744468,0.025961773,300.06827,-1.7954857,9.825122
3.29319E+12,1.189875,1.384571447,1.157619704,9.392499892,-0.032070424,0.008552114,0.021380283,300.15393,-1.8543576,9.79356
3.2932E+12,1.194963,1.38225088,1.146016965,9.369294464,-0.038789943,0.009162978,0.026267206,300.2302,-1.9115806,9.7610445
3.2932E+12,1.199925,1.37998778,1.134701559,9.346663698,-0.03756821,0.00702495,0.020463986,300.3101,-1.9706736,9.731078
3.29321E+12,1.204977,1.367323541,1.125661984,9.353524821,-0.03604105,0.017104227,0.024129177,300.3848,-2.026388,9.698014
3.29321E+12,1.20998,1.347867607,1.118366,9.380276815,-0.037873644,0.014049901,0.020158553,300.4627,-2.0812857,9.669582
3.29322E+12,1.214943,1.328567228,1.111128348,9.406814921,-0.034208454,0.014355334,0.01282817,300.5373,-2.1332557,9.638982
3.29322E+12,1.219948,1.309103517,1.103829447,9.43357761,-0.034208454,0.013744468,0.02076942,300.60782,-2.1824296,9.610055
3.29323E+12,1.224943,1.299241625,1.096526588,9.429915419,-0.03604105,0.015271631,0.020158553,300.6916,-2.2304275,9.587376
3.29323E+12,1.229933,1.294371436,1.089221381,9.41043484,-0.03756821,0.013133603,0.025961773,300.7702,-2.2772183,9.566186
3.29324E+12,1.234944,1.289480751,1.08188543,9.390872279,-0.043676864,0.013439035,0.02321288,300.85175,-2.320352,9.538199
3.29324E+12,1.239939,1.284605682,1.074572903,9.371372181,-0.039095376,0.012522738,0.022907447,300.9299,-2.3652039,9.511551
3.29325E+12,1.244956,1.272951909,1.062262273,9.373010882,-0.040011674,0.021685716,0.023518313,301.00726,-2.4036314,9.477784
3.29325E+12,1.250021,1.258685343,1.047995657,9.382521909,-0.03940081,0.019242255,0.02443461,301.08377,-2.443434,9.448042
3.29326E+12,1.254995,1.247846173,1.033798675,9.388628833,-0.0421497,0.01282817,0.02565634,301.15775,-2.4796069,9.417344
3.29326E+12,1.259964,1.238339207,1.019538176,9.393382416,-0.047036625,0.006414085,0.017715093,301.2332,-2.5154517,9.38773
3.29327E+12,1.264983,1.225650342,1.010262621,9.399726811,-0.048258353,0.011911872,0.02321288,301.3026,-2.5486202,9.355511
3.29327E+12,1.270403,1.210483422,1.002679161,9.407310166,-0.045814894,0.014966198,0.014660766,301.3775,-2.5822937,9.325954
3.29328E+12,1.274966,1.197714666,0.996294783,9.413694455,-0.04550946,0.014660766,0.018325957,301.4453,-2.6118953,9.2955885
3.29328E+12,1.279981,1.183681067,0.989277984,9.420711156,-0.04734206,0.011301007,0.018325957,301.51575,-2.64202,9.265564
3.29329E+12,1.284975,1.180673742,0.9864111,9.424941249,-0.045814894,0.015882496,0.020158553,301.5749,-2.67598,9.230436
3.29329E+12,1.289973,1.185300823,0.9864111,9.427254838,-0.047647487,0.018936822,0.014660766,301.63556,-2.7085268,9.197225
3.2933E+12,1.294965,1.18992235,0.9864111,9.42956565,-0.03604105,0.013439035,0.014049901,301.68372,-2.7456443,9.156374
3.2933E+12,1.300088,1.194665155,0.9864111,9.431937102,-0.032986723,0.011301007,0.014355334,301.7327,-2.7796953,9.114648
3.29331E+12,1.304972,1.201786866,0.984068117,9.421440085,-0.04734206,0.00702495,0.017715093,301.78003,-2.8115804,9.07549
3.29331E+12,1.309992,1.212227855,0.978847622,9.395337611,-0.048258353,0.008246681,0.012522738,301.8293,-2.8480384,9.036146
3.29332E+12,1.315007,1.227880707,0.971021197,9.388177612,-0.040927973,0.006414085,0.01038471,301.87592,-2.8817801,9.001031
3.29332E+12,1.319989,1.246692582,0.961615259,9.392880679,-0.039095376,0.008552114,0.012217305,301.92236,-2.9134254,8.965212
3.29333E+12,1.324979,1.259312094,0.967181487,9.399598245,-0.041233405,0.01740966,0.015882496,301.96735,-2.9445872,8.930656
3.29333E+12,1.329941,1.267423399,0.983404098,9.407709296,-0.04520403,0.013439035,0.014049901,302.0131,-2.975529,8.899794
3.29334E+12,1.334887,1.277529634,0.9959879,9.411276508,-0.03848451,0.013133603,0.004886922,302.0579,-3.003931,8.865716
3.29335E+12,1.340679,1.29766876,0.9959879,9.39689159,-0.036957346,0.007635816,0.002443461,302.10095,-3.0293243,8.835085
3.29335E+12,1.344888,1.312303702,0.9959879,9.386438184,-0.03634648,0.004276057,0.004886922,302.14377,-3.06136,8.805869
3.29335E+12,1.350041,1.330220988,0.9959879,9.373640276,-0.038179077,0.001832596,0.006414085,302.18716,-3.092862,8.778494
3.29336E+12,1.354875,1.34243363,0.99766853,9.369478787,-0.034208454,0.003054326,0.005497787,302.23016,-3.125752,8.75157
3.29336E+12,1.359992,1.347198055,1.002432955,9.37900771,-0.030848695,-0.000305433,-0.003665192,302.27475,-3.1578317,8.727053
3.29337E+12,1.364902,1.351769742,1.007004642,9.388151156,-0.0290161,-0.00580322,0.007330383,302.3088,-3.1868749,8.703925
3.29337E+12,1.369974,1.356492267,1.011727167,9.39759628,-0.028405234,0.004886922,0.001527163,302.34973,-3.2172463,8.677194
3.29338E+12,1.374914,1.359509503,1.013553113,9.405616274,-0.032375857,-0.003054326,-0.002748894,302.3877,-3.2450333,8.657331
3.29338E+12,1.379924,1.357946695,1.007301881,9.410304632,-0.021685716,-0.000916298,-0.000610865,302.42474,-3.2767403,8.632073
3.29339E+12,1.384919,1.356388566,1.001069365,9.414978954,-0.017715093,0.008246681,0.004276057,302.46234,-3.306326,8.608091
3.29339E+12,1.389948,1.354819832,0.994794426,9.419685093,-0.036651913,0.006108652,0.00702495,302.4997,-3.3319871,8.587156
3.2934E+12,1.394909,1.353272309,0.988604334,9.424327597,-0.022296581,0.009162978,0.002748894,302.54492,-3.36509,8.565982
3.2934E+12,1.400043,1.35167082,0.982198381,9.429131995,-0.031154128,0.006719518,0.004886922,302.58713,-3.385653,8.547491
3.29341E+12,1.404928,1.350053809,0.979042232,9.431775044,-0.027488936,0.015882496,0.003359759,302.6308,-3.4138515,8.525018
3.29341E+12,1.410072,1.347631115,0.998423809,9.419661574,-0.023518313,0.011911872,0.003665192,302.67307,-3.4392111,8.507397
3.29342E+12,1.414955,1.345331345,1.01682199,9.408162726,-0.035430185,0.006108652,0.006719518,302.71625,-3.4593463,8.493599
3.29342E+12,1.419934,1.342986362,1.03558188,9.396437811,-0.03359759,0.01985312,0.01282817,302.7576,-3.4840827,8.475563
3.29343E+12,1.425075,1.339282764,1.052713678,9.386006133,-0.033292156,0.017104227,0.005192355,302.80185,-3.5052779,8.463835
3.29343E+12,1.429939,1.321359888,1.043752193,9.394967759,-0.028099801,0.015271631,0.011301007,302.8396,-3.527345,8.448512
3.29344E+12,1.435269,1.302260891,1.03484983,9.404055174,-0.029321533,0.017715093,0.014966198,302.88596,-3.5560255,8.435201
3.29344E+12,1.439939,1.297877508,1.048000024,9.395288225,-0.032986723,0.007941248,0.010079277,302.93268,-3.5851588,8.425916
3.29345E+12,1.444888,1.293232248,1.061935852,9.385997512,-0.019242255,0.010995574,0.012217305,302.9756,-3.6170409,8.410126
3.29345E+12,1.449952,1.286580506,1.065121758,9.372694011,-0.02565634,0.015882496,0.016493361,303.0188,-3.6419423,8.396622
3.29346E+12,1.454879,1.279955872,1.067329961,9.359444744,-0.02321288,0.015271631,0.016798794,303.0621,-3.6728756,8.3838625
3.29346E+12,1.459939,1.273152412,1.069597773,9.345837824,-0.021380283,0.015271631,0.021685716,303.1039,-3.7036865,8.368834
3.29347E+12,1.464936,1.266433659,1.07183735,9.332400319,-0.022296581,0.01282817,0.02076942,303.14685,-3.7341821,8.354718
3.29347E+12,1.469943,1.25456895,1.080577025,9.33418975,-0.016493361,0.016798794,0.023823744,303.18668,-3.7662623,8.339085
3.29348E+12,1.474893,1.240214624,1.092538963,9.343759375,-0.021685716,0.021991149,0.025350908,303.22675,-3.794611,8.323879
3.29348E+12,1.480174,1.224900444,1.10530078,9.353968909,-0.020158553,0.004581489,0.022296581,303.26837,-3.8275702,8.3125
3.29349E+12,1.484936,1.211091293,1.116808406,9.363175082,-0.00702495,0.011911872,0.02687807,303.30637,-3.861511,8.29299
3.29349E+12,1.489939,1.205031924,1.1204864,9.367763225,-0.01985312,0.02107485,0.02321288,303.34747,-3.8885198,8.277788
3.2935E+12,1.494916,1.202678856,1.1204864,9.370116218,-0.024740042,0.02076942,0.025961773,303.38504,-3.9204774,8.263548
3.2935E+12,1.499949,1.200299313,1.1204864,9.372495687,-0.0290161,0.003054326,0.022296581,303.43433,-3.9579854,8.257108
3.29351E+12,1.504973,1.197924024,1.1204864,9.374870901,-0.018325957,0.00702495,0.023823744,303.48032,-3.9974046,8.244665
3.29351E+12,1.509955,1.194179363,1.129251011,9.390301685,-0.02076942,0.014660766,0.018936822,303.5295,-4.0308795,8.235156
3.29352E+12,1.515028,1.189606405,1.142969885,9.413166475,-0.024740042,0.008857546,0.025045475,303.5747,-4.065812,8.228462
3.29352E+12,1.519976,1.191787855,1.148364049,9.425283537,-0.026267206,0.005192355,0.025350908,303.62207,-4.1032405,8.221091
3.29353E+12,1.524974,1.199866037,1.146748413,9.428514878,-0.03604105,0.003054326,0.023823744,303.6678,-4.136391,8.214834
3.29353E+12,1.52996,1.207924824,1.145136655,9.43173846,-0.038789943,0.000610865,0.018936822,303.71332,-4.1768937,8.211215
3.29354E+12,1.534986,1.216048262,1.143511968,9.434987903,-0.02687807,-0.000610865,0.018020526,303.75766,-4.2179594,8.207619
3.29354E+12,1.539973,1.224108666,1.141899887,9.438212132,-0.0290161,0.001221731,0.007635816,303.8088,-4.252232,8.203436
3.29355E+12,1.544956,1.232162604,1.140289099,9.441433774,-0.03023783,0.009468411,0.015577064,303.8542,-4.288748,8.197814
3.29355E+12,1.549936,1.237951643,1.154901286,9.440188404,-0.038179077,0.00580322,0.013133603,303.90515,-4.322973,8.194318
3.29356E+12,1.55498,1.242268478,1.180802339,9.435871479,-0.041233405,0.002138028,0.013439035,303.9523,-4.357189,8.188492
3.29356E+12,1.559972,1.247920138,1.195339761,9.427871595,-0.032986723,0.008857546,0.01160644,303.9941,-4.3955526,8.187341
3.29357E+12,1.56501,1.256054203,1.190459332,9.413230342,-0.03756821,0.010079277,0.008857546,304.0358,-4.428756,8.18836
3.29357E+12,1.569961,1.264047803,1.185663182,9.398841926,-0.044898596,0.001527163,0.010690142,304.07886,-4.4673185,8.189616
3.29358E+12,1.574981,1.272152806,1.180800191,9.384252985,-0.04917465,-0.007330383,0.009468411,304.12305,-4.5049176,8.190135
3.29358E+12,1.579958,1.280188384,1.175978854,9.369789009,-0.046120327,-0.003054326,0.003359759,304.16364,-4.543895,8.188155
3.29359E+12,1.584985,1.288304688,1.171109081,9.355179724,-0.04795292,-0.006108652,0.01038471,304.20068,-4.57905,8.190656
3.29359E+12,1.589967,1.303274367,1.157965112,9.340720758,-0.041233405,0.000305433,0.009162978,304.2411,-4.6173525,8.188534
3.2936E+12,1.595667,1.330796682,1.130442739,9.324207312,-0.048258353,0.003359759,0.010690142,304.27838,-4.650128,8.188102
3.2936E+12,1.599927,1.338670098,1.110071891,9.322399282,-0.04886922,-0.004581489,0.005497787,304.32016,-4.6816425,8.1953945
3.29361E+12,1.604974,1.333887384,1.08615832,9.33196466,-0.04886922,-0.009468411,0.004886922,304.35953,-4.710557,8.2006235
3.29361E+12,1.609918,1.329393176,1.074385424,9.339170061,-0.04337143,-0.008246681,0.003665192,304.39633,-4.7358527,8.2101345
3.29362E+12,1.615012,1.32503277,1.07874583,9.343530558,-0.038179077,-0.011911872,0.004886922,304.4323,-4.7605677,8.221838
3.29362E+12,1.619966,1.324369475,1.079409115,9.347887355,-0.03940081,-0.016798794,0.012217305,304.46417,-4.7804885,8.233127
3.29363E+12,1.624979,1.33909523,1.064683309,9.352795923,-0.036651913,-0.003359759,0.012217305,304.49695,-4.8028603,8.239478
3.29363E+12,1.629931,1.353641796,1.050136692,9.357644762,-0.038789943,0.001832596,0.003665192,304.53104,-4.8224,8.246098
3.29364E+12,1.634974,1.368455677,1.03532276,9.362582704,-0.03481932,0.003665192,0.003665192,304.56195,-4.8437505,8.249661
3.29364E+12,1.639915,1.37286336,1.022239599,9.367356812,-0.033292156,-0.000610865,0.009162978,304.59308,-4.866973,8.257413
3.29365E+12,1.644954,1.349403275,1.012855545,9.372048692,-0.03848451,-0.001527163,0.009773844,304.625,-4.8891644,8.263101
3.29365E+12,1.650025,1.334293559,1.003486461,9.384007022,-0.037873644,-0.004886922,0.009773844,304.64948,-4.902379,8.268028
3.29366E+12,1.654977,1.347647505,0.99458383,9.419617824,-0.03970624,-0.005192355,0.011911872,304.6727,-4.9131713,8.272118
3.29366E+12,1.659947,1.360733594,0.987238099,9.451481984,-0.033292156,0.000305433,0.01038471,304.69455,-4.9279914,8.27306
3.29367E+12,1.666086,1.372707457,0.999212024,9.439507808,-0.03023783,-0.000305433,0.014049901,304.7141,-4.9408436,8.275773
3.29367E+12,1.669929,1.379773169,1.0055647,9.433689792,-0.03573562,-0.007330383,0.01038471,304.73444,-4.9473934,8.275702
3.29368E+12,1.674974,1.385912137,1.0055647,9.438293929,-0.032070424,0.003970624,0.006414085,304.75302,-4.9571767,8.270596
3.29368E+12,1.680108,1.392159403,1.0055647,9.442979289,-0.02565634,0.007330383,0.01160644,304.77057,-4.9672265,8.270892
3.29369E+12,1.684977,1.398084206,1.0055647,9.447422807,-0.032986723,0.009468411,0.012522738,304.78992,-4.9746594,8.268046
3.29369E+12,1.690331,1.404599178,1.0055647,9.452308942,-0.03726278,0.004581489,0.010995574,304.81836,-4.981992,8.271678
3.2937E+12,1.694965,1.410238023,1.0055647,9.456537995,-0.030543262,0.01038471,0.014660766,304.8442,-4.9901433,8.2715845
3.2937E+12,1.699985,1.41634657,1.0055647,9.461119317,-0.030848695,0.01282817,0.011301007,304.87286,-4.9954863,8.273875
3.29371E+12,1.704971,1.409876854,1.024291158,9.465630362,-0.025961773,0.014049901,0.016493361,304.89743,-5.0037093,8.274953
3.29371E+12,1.709949,1.400885189,1.046770133,9.470126242,-0.030848695,0.005192355,0.01985312,304.92322,-5.009303,8.277898
3.29372E+12,1.714944,1.384831905,1.056794257,9.448044008,-0.020463986,0.006719518,0.018020526,304.94724,-5.019733,8.279763
3.29372E+12,1.719973,1.365691676,1.061579327,9.414548819,-0.013133603,0.011911872,0.022296581,304.9682,-5.027516,8.283063
3.29373E+12,1.724942,1.349552248,1.066477051,9.418230731,-0.027794369,0.010079277,0.02107485,304.99393,-5.036496,8.285164
3.29373E+12,1.729953,1.334508566,1.071491611,9.438288868,-0.025350908,0.01038471,0.025961773,305.0161,-5.0517364,8.285255
3.29374E+12,1.735576,1.324736972,1.066163172,9.429853499,-0.017104227,0.00702495,0.02321288,305.0422,-5.066541,8.284259
3.29374E+12,1.739948,1.318498925,1.059925125,9.417377362,-0.022296581,0.007941248,0.024129177,305.06537,-5.0777116,8.2820635
3.29375E+12,1.744921,1.311403361,1.052829561,9.403186185,-0.022296581,0.008552114,0.019242255,305.09198,-5.093962,8.278069
3.29375E+12,1.749922,1.304267846,1.045694046,9.388915105,-0.01863139,0.008246681,0.016798794,305.1173,-5.109445,8.274096
3.29376E+12,1.754912,1.301564282,1.047398071,9.386152536,-0.014355334,-0.004886922,0.024740042,305.141,-5.124688,8.273697
3.29376E+12,1.759909,1.300377925,1.052143499,9.387338918,-0.010995574,0.007635816,0.02076942,305.1678,-5.141091,8.265634
3.29377E+12,1.764939,1.299183734,1.056920265,9.388533134,-0.015271631,-0.002748894,0.021380283,305.17776,-5.155825,8.257718
3.29377E+12,1.769953,1.297993341,1.061681838,9.389723552,-0.016493361,0.006719518,0.016187929,305.18973,-5.1724596,8.240661
3.29378E+12,1.774944,1.296808408,1.066421568,9.39090851,-0.021991149,0.009468411,0.018325957,305.2077,-5.187459,8.237651
3.29378E+12,1.779961,1.295617303,1.071185989,9.39209964,-0.018020526,-0.008857546,0.01038471,305.2302,-5.2051396,8.237539
3.29379E+12,1.784958,1.294430946,1.075931417,9.393286022,-0.009773844,0.005497787,0.016493361,305.24686,-5.2215753,8.227767
3.29379E+12,1.789963,1.293242689,1.080684442,9.394474303,-0.021380283,0.008246681,0.013133603,305.26904,-5.233951,8.225922
3.2938E+12,1.794957,1.289876461,1.088164153,9.418787688,-0.017715093,0.013439035,0.016187929,305.28506,-5.257758,8.225355
3.2938E+12,1.799957,1.285501404,1.096914085,9.453787231,-0.019242255,0.007330383,0.007941248,305.30536,-5.2769804,8.226653
3.29381E+12,1.804885,1.284501011,1.100123814,9.466626081,-0.010995574,0.009162978,0.00580322,305.32773,-5.2996936,8.22183
3.29381E+12,1.809883,1.287015634,1.097609244,9.456567852,-0.024740042,0.006108652,0.008857546,305.35098,-5.315494,8.219929
3.29382E+12,1.81491,1.289544848,1.095080083,9.446451262,-0.015577064,0.010690142,0.003359759,305.37915,-5.344321,8.218002
3.29382E+12,1.819887,1.292048905,1.092576078,9.436435295,-0.01740966,0.008552114,0.005192355,305.40427,-5.365271,8.218884
3.29383E+12,1.824876,1.308745257,1.088580749,9.429979682,-0.02565634,0.004581489,0.01038471,305.42493,-5.388263,8.216891
3.29383E+12,1.82992,1.332585637,1.083812673,9.425211507,-0.030543262,0.006414085,0.006108652,305.4475,-5.4114585,8.213499
3.29384E+12,1.834882,1.331466232,1.088370379,9.426673654,-0.026267206,0.000610865,0.009162978,305.46582,-5.4331555,8.214755
3.29384E+12,1.839881,1.317111083,1.097940478,9.431458804,-0.021991149,-0.001832596,0.005497787,305.48697,-5.4535246,8.21407
3.29385E+12,1.84486,1.324052681,1.119377922,9.424132565,-0.026572637,-0.001221731,0.001527163,305.50034,-5.469571,8.212235
3.29385E+12,1.849883,1.342894932,1.147641298,9.410001073,-0.025961773,-0.009468411,0.004276057,305.51303,-5.487759,8.213598
3.29386E+12,1.854879,1.34459048,1.160228445,9.40585971,-0.01740966,-0.004581489,0.006719518,305.52454,-5.507405,8.203482
3.29386E+12,1.859891,1.335046528,1.162614458,9.408245499,-0.02076942,-0.011911872,-0.000610865,305.53857,-5.5237675,8.199084
3.29387E+12,1.864902,1.32550448,1.164999995,9.410630812,-0.015577064,-0.01160644,0.002443461,305.5503,-5.548178,8.193355
3.29387E+12,1.869882,1.316021463,1.167370774,9.413001368,-0.023823744,-0.007330383,0.002138028,305.56506,-5.567773,8.188259
3.29388E+12,1.874881,1.316114843,1.165642324,9.411272923,-0.01740966,-0.013744468,0.001221731,305.57935,-5.592374,8.186167
3.29388E+12,1.879916,1.323222275,1.160904011,9.406534784,-0.016187929,-0.007330383,0.008552114,305.5908,-5.612405,8.179451
3.29389E+12,1.884878,1.33022666,1.156234396,9.40186534,-0.026572637,-0.002138028,0.012217305,305.6045,-5.6313305,8.170192
3.29389E+12,1.889965,1.337407496,1.151447148,9.397078266,-0.02687807,-0.003970624,0.008552114,305.6182,-5.6529884,8.161267
3.2939E+12,1.894964,1.333339886,1.144274724,9.399789921,-0.03023783,0.001832596,0.011301007,305.6286,-5.6700473,8.149193
3.2939E+12,1.900035,1.31904095,1.1347421,9.409322247,-0.03970624,0.000916298,0.010690142,305.6412,-5.6852126,8.139552
3.29391E+12,1.904962,1.298227457,1.120866454,9.407103537,-0.030848695,0.002138028,0.013439035,305.65005,-5.7020345,8.130579
3.29391E+12,1.909971,1.269884607,1.101971253,9.392932333,-0.038179077,0.005497787,0.018936822,305.6582,-5.7112913,8.1215105
3.29392E+12,1.914962,1.263124861,1.085333646,9.376707906,-0.044898596,0.006414085,0.016798794,305.68118,-5.711594,8.109108
3.29392E+12,1.920132,1.282516689,1.070789813,9.35731623,-0.038179077,0.017104227,0.021991149,305.69974,-5.7133465,8.093642
3.29393E+12,1.924899,1.29630187,1.069891339,9.353829704,-0.027488936,0.014660766,0.016798794,305.7212,-5.7174616,8.0836115
3.29393E+12,1.929979,1.304990947,1.087269494,9.371207768,-0.032986723,0.010079277,0.018325957,305.7387,-5.718542,8.071797
3.29394E+12,1.934878,1.308805832,1.10294118,9.386075207,-0.03481932,0.012522738,0.021380283,305.74615,-5.7213187,8.055623
3.29394E+12,1.939973,1.288007058,1.11334054,9.391274995,-0.03848451,0.015882496,0.01863139,305.75488,-5.72228,8.0407715
3.29395E+12,1.944923,1.2724348,1.118565649,9.392287013,-0.028099801,0.013133603,0.02076942,305.76147,-5.722845,8.018863
3.29395E+12,1.94999,1.267957025,1.111848987,9.38333151,-0.031154128,0.021380283,0.020463986,305.76913,-5.7190514,7.9934497
3.29396E+12,1.954914,1.263605621,1.105321881,9.374628747,-0.02565634,0.014660766,0.025045475,305.77734,-5.7227864,7.970865
3.29396E+12,1.959985,1.259124311,1.098599917,9.365666175,-0.031154128,0.015882496,0.02321288,305.787,-5.722979,7.944278
3.29397E+12,1.965363,1.255118388,1.091570437,9.35728325,-0.032070424,0.015882496,0.02565634,305.79434,-5.725786,7.920931
3.29397E+12,1.969987,1.267091073,1.087579528,9.373246801,-0.040317107,0.02321288,0.030543262,305.80124,-5.725082,7.895877
3.29398E+12,1.974877,1.279752497,1.083359038,9.390128672,-0.040927973,0.016493361,0.027183503,305.81042,-5.7273774,7.8789387
3.29398E+12,1.979969,1.285043575,1.085682277,9.393096425,-0.03604105,0.01985312,0.017715093,305.81946,-5.7291155,7.857635
3.29399E+12,1.984929,1.287375873,1.090346776,9.390764127,-0.03726278,0.009773844,0.020463986,305.8265,-5.7287626,7.842878
3.29399E+12,1.990099,1.289806918,1.095208764,9.388333082,-0.042455133,0.007941248,0.020463986,305.83527,-5.7311215,7.831198
3.294E+12,1.994947,1.292086552,1.099767936,9.386053448,-0.03604105,0.015271631,0.020463986,305.84317,-5.736344,7.8201094
3.294E+12,1.999943,1.29750999,1.104426793,9.386818029,-0.04153884,0.016493361,0.020158553,305.85132,-5.7367873,7.811503
3.29401E+12,2.004966,1.304506295,1.109090997,9.389150179,-0.03481932,0.017104227,0.016187929,305.8603,-5.742675,7.801155
3.29401E+12,2.009985,1.31149703,1.113751486,9.391480473,-0.047036625,0.007941248,0.016493361,305.86322,-5.7498016,7.797963
3.29402E+12,2.015031,1.318525371,1.118437047,9.393823302,-0.03573562,0.011301007,0.015271631,305.86743,-5.7654285,7.791002
3.29402E+12,2.019947,1.320813565,1.119700565,9.397991323,-0.044593163,0.009773844,0.014355334,305.87186,-5.771645,7.7881207
3.29403E+12,2.025646,1.319160382,1.118047382,9.40460402,-0.04520403,0.01038471,0.006414085,305.87854,-5.783453,7.783513
3.29403E+12,2.02995,1.317911865,1.116798865,9.409598063,-0.04550946,0.004276057,0.009162978,305.87482,-5.7926774,7.7757273
3.29404E+12,2.034934,1.316466091,1.115353091,9.415381128,-0.04337143,0.014049901,0.011911872,305.87308,-5.802516,7.763319
3.29404E+12,2.039907,1.315023509,1.113910509,9.421151428,-0.03390302,0.007941248,0.011911872,305.87207,-5.8141327,7.7574244
3.29405E+12,2.044947,1.31356149,1.11244849,9.426999471,-0.037873644,0.002748894,0.00580322,305.87195,-5.822451,7.748709
3.29405E+12,2.050472,1.311812927,1.111014436,9.432945323,-0.034208454,0.004581489,0.011301007,305.88083,-5.8291554,7.743371
3.29406E+12,2.054926,1.307568008,1.113136896,9.428700315,-0.044593163,0.007635816,0.003054326,305.8954,-5.831504,7.738633
3.29406E+12,2.060012,1.302720757,1.115560521,9.423852963,-0.04153884,0.000916298,0.003970624,305.90558,-5.8372607,7.735888
3.29407E+12,2.064991,1.297975483,1.117933159,9.41910759,-0.04520403,0.002748894,0.010690142,305.916,-5.838333,7.7298894
3.29407E+12,2.069927,1.29327119,1.120285305,9.414403199,-0.04550946,0.004581489,0.014660766,305.9269,-5.8413334,7.7258105
3.29408E+12,2.074982,1.283968389,1.107135553,9.418451375,-0.053450707,0.003970624,0.01282817,305.93512,-5.843439,7.723007
3.29408E+12,2.079916,1.274489517,1.092917319,9.423190886,-0.05467244,0.005192355,0.014355334,305.94107,-5.8470435,7.719448
3.29409E+12,2.08499,1.282621914,1.082849433,9.414671712,-0.047036625,-0.003970624,0.015577064,305.94888,-5.852286,7.717663
3.29409E+12,2.089874,1.291934673,1.073536722,9.405359293,-0.040927973,0.001221731,0.019547688,305.9549,-5.856598,7.7116776
3.2941E+12,2.095309,1.283817486,1.059025199,9.386321924,-0.034513887,0.004886922,0.019547688,305.96103,-5.864552,7.7121263
3.2941E+12,2.099918,1.275380998,1.046370534,9.369448905,-0.048258353,0.004886922,0.013133603,305.96777,-5.868432,7.712012
3.29411E+12,2.104976,1.269682349,1.035806056,9.354018605,-0.043982297,0.009162978,0.014049901,305.97073,-5.8769217,7.711668
3.29411E+12,2.109871,1.264923117,1.026287542,9.339740859,-0.044898596,0.004276057,0.014966198,305.9757,-5.8802214,7.7136908
3.29412E+12,2.114953,1.276347535,1.016578972,9.349596035,-0.044898596,0.006414085,0.016493361,305.9855,-5.883349,7.7178082
3.29412E+12,2.119888,1.290441473,1.007183046,9.363689973,-0.044593163,0.000305433,0.017104227,305.9955,-5.8862715,7.725407
3.29413E+12,2.124943,1.300772139,0.993709992,9.374020598,-0.036957346,0.00580322,0.018325957,306.00366,-5.889945,7.728846
3.29413E+12,2.129916,1.310118705,0.979690143,9.383367115,-0.039095376,0.010690142,0.02076942,306.0113,-5.89085,7.7339845
3.29414E+12,2.134946,1.329817958,0.99818873,9.41018465,-0.03604105,0.004276057,0.015271631,306.02185,-5.89218,7.743375
3.29414E+12,2.139907,1.351795248,1.024561478,9.440953039,-0.03970624,0.013133603,0.014966198,306.0294,-5.8907447,7.7470064
3.29415E+12,2.144969,1.366414641,1.024532988,9.455562765,-0.043982297,0.01160644,0.007941248,306.0298,-5.887984,7.749346
3.29415E+12,2.150063,1.376675228,1.009142026,9.460692658,-0.04795292,0.013744468,0.020158553,306.02438,-5.8836064,7.748718
3.29416E+12,2.154977,1.389714742,1.016219342,9.468988243,-0.039095376,0.013133603,0.009468411,306.02982,-5.8837676,7.747534
3.29416E+12,2.160021,1.404122789,1.030627389,9.478593809,-0.04795292,0.015271631,0.016798794,306.0264,-5.876735,7.7459373
3.29417E+12,2.165208,1.415209105,1.041713666,9.492166636,-0.047647487,0.01740966,0.022296581,306.02463,-5.872595,7.746012
3.29417E+12,2.169989,1.424296563,1.050801077,9.505797492,-0.036957346,0.008857546,0.01863139,306.02362,-5.8691525,7.748525
3.29418E+12,2.174974,1.430318786,1.056823321,9.496270987,-0.034208454,0.004886922,0.016187929,306.0211,-5.865159,7.750693
3.29418E+12,2.179977,1.435018828,1.061523412,9.47747072,-0.02443461,0.008246681,0.015271631,306.0192,-5.86631,7.75308
3.29419E+12,2.184988,1.433344284,1.069379098,9.474638815,-0.032070424,0.00702495,0.01282817,306.024,-5.8644953,7.7625837
3.29419E+12,2.189977,1.428699315,1.078669134,9.47928393,-0.035124753,0.014966198,0.016798794,306.0267,-5.8664513,7.7683997
3.2942E+12,2.194968,1.432946831,1.073175404,9.484040328,-0.028405234,0.00702495,0.010690142,306.0368,-5.868327,7.7793603
3.2942E+12,2.199943,1.442561316,1.058753677,9.488847671,-0.021380283,0.010690142,0.019242255,306.04083,-5.8687744,7.7850895
3.29421E+12,2.204975,1.4431425,1.04753803,9.481749706,-0.025350908,0.007635816,0.01985312,306.0503,-5.8702674,7.7931824
3.29421E+12,2.209997,1.438507265,1.03826761,9.467843858,-0.029321533,0.01038471,0.017104227,306.05783,-5.873471,7.798507
3.29422E+12,2.215004,1.430964325,1.042630186,9.447993239,-0.022296581,0.005192355,0.016493361,306.06088,-5.8763165,7.8077083
3.29422E+12,2.219968,1.421302911,1.057122433,9.423839578,-0.013133603,0.00702495,0.013133603,306.0651,-5.8788753,7.81376
3.29423E+12,2.224976,1.420220001,1.057320598,9.408296176,-0.01985312,0.014660766,0.014355334,306.05914,-5.8786564,7.8139257
3.29423E+12,2.229971,1.424991684,1.047777233,9.39875311,-0.023823744,0.008857546,0.014966198,306.0548,-5.881825,7.8172674
3.29424E+12,2.234929,1.424178513,1.041106184,9.383784908,-0.022602014,0.01160644,0.014049901,306.05215,-5.8874903,7.8145313
3.29424E+12,2.23998,1.419384418,1.036312039,9.364608629,-0.023518313,0.00702495,0.011301007,306.05032,-5.8913517,7.815541
3.29425E+12,2.244964,1.40651418,1.03972176,9.37010758,-0.018020526,0.01863139,0.013744468,306.04562,-5.895459,7.8125205
3.29425E+12,2.250029,1.387286454,1.049335623,9.394142111,-0.019242255,0.016187929,0.013744468,306.04303,-5.8975263,7.814649
3.29426E+12,2.254979,1.381641957,1.068939782,9.412170383,-0.018936822,0.013744468,0.008552114,306.04083,-5.9012103,7.8132925
3.29426E+12,2.260014,1.38631305,1.096966046,9.42618332,-0.027794369,0.016187929,0.011301007,306.0364,-5.9015484,7.8115516
3.29427E+12,2.264989,1.376672055,1.108516611,9.428368922,-0.019242255,0.013133603,0.009773844,306.0365,-5.9100776,7.8091598
3.29427E+12,2.269984,1.35247574,1.103677348,9.418690194,-0.018020526,0.01863139,0.01282817,306.03418,-5.9136543,7.803991
3.29428E+12,2.274971,1.333658835,1.103697522,9.406906934,-0.017104227,0.007635816,0.012217305,306.0365,-5.923993,7.8036757
3.29429E+12,2.280747,1.317696274,1.109018375,9.390944595,-0.021991149,0.011911872,0.01863139,306.03534,-5.9323926,7.797882
3.29429E+12,2.284976,1.307837187,1.113002301,9.390502753,-0.029932396,0.01160644,0.017715093,306.0341,-5.9382434,7.7871885
3.29429E+12,2.289975,1.298221893,1.117809935,9.402521839,-0.022907447,0.008246681,0.009162978,306.03333,-5.9468718,7.7764955
3.2943E+12,2.294961,1.288631604,1.122605067,9.414509669,-0.021685716,0.019547688,0.011911872,306.0306,-5.9526296,7.760436
3.2943E+12,2.299973,1.278991305,1.127425204,9.42656001,-0.025961773,0.01282817,0.01863139,306.02997,-5.958863,7.750696
3.29431E+12,2.304878,1.26969256,1.129057515,9.429132281,-0.028710667,0.018020526,0.018325957,306.03946,-5.960418,7.7356415
3.29431E+12,2.310024,1.260117621,1.12666378,9.419557392,-0.02443461,0.025045475,0.013439035,306.0484,-5.962782,7.7223787
3.29432E+12,2.314966,1.250922256,1.124364939,9.410362075,-0.02565634,0.02107485,0.01160644,306.05862,-5.964837,7.7078295
3.29432E+12,2.319981,1.241591062,1.122032141,9.40103093,-0.029321533,0.010995574,0.019242255,306.06744,-5.9673147,7.6936564
3.29433E+12,2.324872,1.238358861,1.117535639,9.393372589,-0.03145956,0.015577064,0.014966198,306.0798,-5.970488,7.676475
3.29433E+12,2.329983,1.247977062,1.107917438,9.388563388,-0.035124753,0.011301007,0.015271631,306.0891,-5.971802,7.665412
3.29434E+12,2.334886,1.253891753,1.095303274,9.384601039,-0.026572637,0.01160644,0.011301007,306.10458,-5.9754286,7.6510034
3.29434E+12,2.339983,1.251459618,1.073414034,9.382168854,-0.02687807,0.011911872,0.016798794,306.11716,-5.975313,7.6384463
3.29435E+12,2.344901,1.249112897,1.052293515,9.379822083,-0.02565634,0.008246681,0.009468411,306.13306,-5.9769425,7.628522
3.29435E+12,2.350387,1.246495143,1.028733701,9.377204274,-0.021685716,0.007635816,0.016187929,306.14307,-5.978658,7.618506
3.29436E+12,2.354928,1.244361695,1.020750355,9.377563655,-0.025350908,0.01160644,0.008552114,306.1511,-5.9866576,7.6102195
3.29436E+12,2.359923,1.242099405,1.041110986,9.384350666,-0.0290161,0.006414085,0.009468411,306.15506,-5.994998,7.605332
3.29437E+12,2.364921,1.239835757,1.061483845,9.391141753,-0.02443461,0.008246681,0.009162978,306.15765,-5.995432,7.5951695
3.29437E+12,2.369938,1.237563503,1.081934153,9.397958657,-0.024129177,0.010995574,0.006414085,306.16083,-5.9937906,7.586436
3.29438E+12,2.375055,1.236135478,1.102060178,9.403697607,-0.028099801,0.003054326,0.010690142,306.15225,-5.9989433,7.580984
3.29438E+12,2.379933,1.246046506,1.111971206,9.393786372,-0.025045475,0.004276057,0.005497787,306.14703,-6.006442,7.5720644
3.29439E+12,2.385041,1.253686919,1.122235962,9.386145799,-0.015271631,0.012217305,0.009773844,306.14246,-6.021101,7.5615883
3.29439E+12,2.389942,1.249011563,1.131586673,9.390821253,-0.026267206,0.004581489,0.009773844,306.14117,-6.030749,7.5551615
3.2944E+12,2.394942,1.245541669,1.139268821,9.393548866,-0.03390302,-0.007635816,0.006414085,306.14914,-6.0438066,7.5552077
3.2944E+12,2.399977,1.249140294,1.136869737,9.385152022,-0.014966198,-0.002443461,0.004886922,306.1562,-6.0609403,7.552483
3.29441E+12,2.404947,1.252692463,1.134501624,9.376863578,-0.020158553,-0.005497787,0.00580322,306.1583,-6.07118,7.5492373
3.29441E+12,2.40997,1.256282513,1.132108258,9.368486747,-0.021685716,-0.010995574,0.006108652,306.161,-6.0874825,7.545253
3.29442E+12,2.414915,1.259816814,1.129752058,9.360239995,-0.020158553,-0.014355334,0.010690142,306.16238,-6.102595,7.5417724
3.29442E+12,2.420484,1.263797101,1.127098533,9.350952602,-0.022296581,-0.011911872,0.007330383,306.166,-6.1161537,7.5380077
3.29443E+12,2.424939,1.266981188,1.124975808,9.343523021,-0.016187929,-0.013133603,0.013133603,306.16092,-6.1350207,7.536834
3.29443E+12,2.429918,1.27053979,1.122603407,9.335219568,-0.022907447,-0.011911872,0.006719518,306.16037,-6.149744,7.5338264
3.29444E+12,2.434905,1.275192838,1.121963932,9.329780059,-0.02687807,-0.015271631,0.017104227,306.1542,-6.1647277,7.5324845
3.29444E+12,2.439941,1.288870924,1.135641971,9.348017587,-0.024740042,-0.013744468,0.014966198,306.15344,-6.179841,7.528881
3.29445E+12,2.445171,1.302227009,1.150091964,9.366336284,-0.032375857,-0.009468411,0.012217305,306.14825,-6.191161,7.531764
3.29445E+12,2.450004,1.297669188,1.168323297,9.370893962,-0.025961773,-0.009162978,0.01038471,306.14368,-6.2066703,7.5351777
3.29446E+12,2.455149,1.292976265,1.187416835,9.375747634,-0.03145956,-0.012217305,0.01038471,306.13998,-6.2178583,7.5393977
3.29446E+12,2.459943,1.302325858,1.178067242,9.380422528,-0.03390302,0.002443461,0.01282817,306.1357,-6.2312627,7.5383835
3.29447E+12,2.465234,1.31313736,1.16864919,9.384992304,-0.036957346,-0.009468411,0.01282817,306.13446,-6.2484875,7.546739
3.29447E+12,2.469955,1.329635106,1.172773626,9.380867782,-0.038179077,-0.000916298,0.013439035,306.13138,-6.264911,7.545127
3.29448E+12,2.474909,1.346947081,1.17710162,9.376539698,-0.04184427,-0.000305433,0.01282817,306.12775,-6.279886,7.5537133
3.29448E+12,2.479926,1.351600784,1.172863349,9.383319933,-0.03573562,0.004276057,0.014049901,306.12317,-6.2966924,7.5585904
3.29449E+12,2.484926,1.353170288,1.166585316,9.39273699,-0.042455133,-0.003359759,0.01282817,306.11996,-6.308473,7.566473
3.29449E+12,2.490138,1.35480634,1.160041095,9.402553331,-0.052534413,-0.00580322,0.007330383,306.11734,-6.3199024,7.5731473
3.2945E+12,2.494918,1.356306785,1.154039296,9.411556037,-0.04428773,0.000305433,0.01740966,306.1107,-6.3336744,7.5797544
3.2945E+12,2.49996,1.357889473,1.147708528,9.421052198,-0.043066,-0.004581489,0.013439035,306.11646,-6.339046,7.589555
3.29451E+12,2.504932,1.359450188,1.141465652,9.43041652,-0.047036625,-0.003359759,0.015882496,306.1171,-6.3444533,7.5961704
3.29451E+12,2.509998,1.370420704,1.129125896,9.422641043,-0.04886922,0.011301007,0.016798794,306.11398,-6.3542414,7.6000648
3.29452E+12,2.514977,1.384913983,1.114632617,9.408147966,-0.05375614,0.012522738,0.02076942,306.10974,-6.3615146,7.6073747
3.29452E+12,2.519917,1.409675539,1.114416017,9.414944105,-0.04428773,0.004886922,0.017104227,306.11356,-6.3606486,7.610581
3.29453E+12,2.524967,1.438696196,1.119252785,9.429454206,-0.040317107,0.00702495,0.018020526,306.11447,-6.356682,7.61094
3.29453E+12,2.529922,1.434071109,1.115332076,9.433155,-0.042760566,0.003970624,0.019242255,306.11554,-6.355631,7.6241717
3.29454E+12,2.534952,1.417574038,1.108261924,9.433155,-0.041233405,0.008246681,0.026267206,306.11426,-6.3565187,7.6345696
3.29454E+12,2.539937,1.401224555,1.101255024,9.433155,-0.04520403,0.014966198,0.023518313,306.11417,-6.3549366,7.6481075
3.29455E+12,2.544923,1.384871792,1.094246718,9.433155,-0.032986723,0.01038471,0.019242255,306.11267,-6.358112,7.663413
3.29455E+12,2.549969,1.372825405,1.082403909,9.436272429,-0.04184427,0.014660766,0.020158553,306.10992,-6.354069,7.674031
3.29456E+12,2.554941,1.363357201,1.068201528,9.441006655,-0.047036625,0.006414085,0.027488936,306.1071,-6.354338,7.689207
3.29456E+12,2.559941,1.355509667,1.058628652,9.438334975,-0.048258353,0.006719518,0.03176499,306.10492,-6.3521886,7.696234
3.29457E+12,2.564949,1.348602565,1.051721525,9.431427729,-0.03756821,0.016798794,0.026572637,306.1033,-6.35207,7.7025037
3.29457E+12,2.569939,1.341720289,1.044839225,9.424545309,-0.038789943,0.016798794,0.021380283,306.09995,-6.3460474,7.7106056
3.29458E+12,2.57494,1.334822841,1.037941754,9.417647717,-0.03481932,0.012522738,0.025045475,306.09534,-6.344418,7.7170486
3.29458E+12,2.579919,1.331931463,1.030518785,9.408714206,-0.034208454,0.012217305,0.025045475,306.09317,-6.3418784,7.7219577
3.29459E+12,2.584956,1.333560696,1.022372618,9.397309675,-0.03756821,0.008857546,0.0290161,306.08902,-6.339043,7.7290387
3.29459E+12,2.589937,1.335171816,1.014317018,9.386031936,-0.03176499,0.008857546,0.026572637,306.09826,-6.33521075,7.73641345
3.2946E+12,2.594918,1.336782936,1.006261418,9.374754197,-0.026572637,-0.001527163,0.024740042,306.1075,-6.3313785,7.7437882
3.2946E+12,2.599986,1.338422197,0.998065116,9.363279476,-0.028405234,0.008552114,0.026572637,306.12207,-6.319144,7.753545
3.29461E+12,2.604943,1.340025554,0.99004833,9.352056077,-0.03023783,0.004581489,0.022907447,306.13974,-6.310712,7.7694077
3.29461E+12,2.609938,1.345145866,0.995196832,9.353553207,-0.031154128,-0.002138028,0.01863139,306.15308,-6.303438,7.7814684
3.29462E+12,2.61496,1.353179724,1.011264548,9.365603826,-0.031154128,0.003665192,0.018936822,306.1655,-6.2961373,7.7907305
3.29462E+12,2.619884,1.354619031,1.02670114,9.377676875,-0.034513887,0.004581489,0.022296581,306.17578,-6.2842627,7.8049116
3.29463E+12,2.624935,1.317473672,1.040630662,9.391606639,-0.027183503,0.003359759,0.024129177,306.1859,-6.275805,7.817601
3.29463E+12,2.62997,1.282911428,1.053829374,9.404044418,-0.023518313,0.006414085,0.016493361,306.20078,-6.2696195,7.83189
3.29464E+12,2.634951,1.278013159,1.058727669,9.399146021,-0.02687807,-0.001527163,0.014049901,306.21368,-6.263428,7.8493433
3.29464E+12,2.639977,1.273070637,1.063670216,9.394203371,-0.02321288,0.003054326,0.012217305,306.2312,-6.2643423,7.8555145
3.29465E+12,2.644921,1.268208754,1.068532125,9.38934136,-0.023823744,0.002443461,0.017104227,306.24756,-6.263046,7.8651485
3.29465E+12,2.649974,1.268577699,1.069051039,9.390598047,-0.022296581,0.003665192,0.022296581,306.2653,-6.260446,7.8698716
3.29466E+12,2.654942,1.29270674,1.049747796,9.419552935,-0.023823744,0.005192355,0.009773844,306.28635,-6.25752,7.874024
3.29466E+12,2.659937,1.313442039,1.036187691,9.443205156,-0.021380283,0.001221731,0.011911872,306.30295,-6.2576118,7.878218
3.29467E+12,2.664949,1.320430477,1.045505632,9.445534684,-0.02565634,0.000610865,0.015577064,306.3222,-6.2559643,7.880487
3.29467E+12,2.670293,1.327881837,1.055440804,9.448018523,-0.02107485,0.001527163,0.016798794,306.33554,-6.258934,7.8922067
3.29468E+12,2.67544,1.335058511,1.065009728,9.450410797,-0.022296581,0.000305433,0.008246681,306.35043,-6.2593136,7.9040527
3.29468E+12,2.679921,1.340378272,1.073726584,9.451934264,-0.014355334,-0.001221731,0.003054326,306.3637,-6.263399,7.915422
3.29469E+12,2.684952,1.335629516,1.087972853,9.447185409,-0.018020526,0.004581489,0.013133603,306.3745,-6.2635846,7.9248204
3.29469E+12,2.690034,1.331877035,1.102384053,9.439928655,-0.029321533,0.000610865,0.013744468,306.3894,-6.261505,7.929869
3.2947E+12,2.694922,1.341288253,1.11650088,9.402283734,-0.021991149,0.004886922,0.008552114,306.4024,-6.2635956,7.9309144
3.2947E+12,2.700099,1.349872585,1.13097763,9.366574701,-0.02687807,0.000916298,0.010690142,306.41785,-6.2578073,7.9321446
3.29471E+12,2.704942,1.345269067,1.140184666,9.371178074,-0.029321533,-0.006414085,0.010690142,306.43503,-6.2552876,7.93285
3.29471E+12,2.710098,1.340390107,1.149035353,9.37587545,-0.03604105,-0.00702495,0.009468411,306.44937,-6.2556596,7.935151
3.29472E+12,2.714969,1.33602553,1.146853065,9.378057784,-0.027794369,0.002443461,0.014049901,306.46167,-6.2594104,7.9366536
3.29472E+12,2.719932,1.331578519,1.144629559,9.380281336,-0.022907447,-0.001527163,0.011301007,306.47778,-6.262443,7.940578
3.29473E+12,2.724942,1.327089394,1.142384997,9.382525946,-0.025045475,-0.007941248,0.010079277,306.49167,-6.2655864,7.9426103
3.29473E+12,2.729953,1.322599373,1.140139986,9.384771003,-0.029932396,-0.001527163,0.015882496,306.50378,-6.269132,7.942134
3.29474E+12,2.734913,1.332785428,1.165740772,9.396456873,-0.030848695,0.000916298,0.013439035,306.51553,-6.27554,7.9439964
3.29474E+12,2.73991,1.347326683,1.199670417,9.410997925,-0.036957346,-0.000305433,0.014966198,306.5242,-6.2786345,7.9452996
3.29475E+12,2.745691,1.33684752,1.211171793,9.418495187,-0.025045475,0.000305433,0.01985312,306.5355,-6.283187,7.943087
3.29475E+12,2.749911,1.324867057,1.215165281,9.422488758,-0.03023783,0.007635816,0.016798794,306.54822,-6.281536,7.9391093
3.29476E+12,2.754901,1.317925438,1.212580538,9.40888223,-0.0421497,0.002443461,0.01740966,306.55682,-6.2886796,7.939423
3.29476E+12,2.759923,1.313119334,1.207774434,9.389657911,-0.038789943,-0.002138028,0.015271631,306.5667,-6.2987504,7.9373302
3.29477E+12,2.764905,1.322948526,1.203035725,9.388913051,-0.03268129,0.008552114,0.014355334,306.57697,-6.3073573,7.930158
3.29477E+12,2.769941,1.337292364,1.198254445,9.393694431,-0.03573562,0.01160644,0.014966198,306.58762,-6.3142266,7.9264603
3.29478E+12,2.774919,1.344212489,1.198830645,9.393118219,-0.03634648,0.00580322,0.014049901,306.5987,-6.3231163,7.922078
3.29478E+12,2.779913,1.34880369,1.201126245,9.390822571,-0.039095376,0.006414085,0.009468411,306.61023,-6.3305435,7.915042
3.29479E+12,2.784916,1.353403165,1.203425982,9.388522785,-0.043066,0.014355334,0.016187929,306.6173,-6.3355327,7.910118
3.29479E+12,2.789942,1.358023785,1.205736292,9.386212427,-0.036957346,0.015271631,0.015577064,306.6279,-6.343019,7.906677
3.2948E+12,2.794918,1.362953196,1.209724296,9.373084679,-0.041233405,0.012522738,0.012217305,306.62537,-6.347038,7.899362
3.2948E+12,2.799893,1.368129704,1.214900804,9.352378755,-0.038179077,0.014049901,0.015271631,306.6212,-6.354472,7.8910284
3.29481E+12,2.80486,1.379708163,1.212846234,9.336739166,-0.046120327,0.016493361,0.017715093,306.6199,-6.360742,7.883469
3.29481E+12,2.809852,1.393631244,1.208205191,9.322815988,-0.04886922,0.016187929,0.015577064,306.61926,-6.3691854,7.876432
3.29482E+12,2.814889,1.384880268,1.210011067,9.334900334,-0.046731193,0.013439035,0.019547688,306.61285,-6.376692,7.867058
3.29482E+12,2.819865,1.3653319,1.214898171,9.359335857,-0.045814894,0.009773844,0.016493361,306.60938,-6.383278,7.858064
3.29483E+12,2.824855,1.363338824,1.2162545,9.367833567,-0.05589417,0.01160644,0.02321288,306.60083,-6.3856,7.8515053
3.29483E+12,2.829881,1.368118639,1.2162545,9.370223412,-0.048258353,0.018936822,0.019547688,306.5963,-6.3937473,7.8442445
3.29484E+12,2.83488,1.372872778,1.2162545,9.37260042,-0.04734206,0.019547688,0.018325957,306.58768,-6.3956513,7.8300962
3.29484E+12,2.839859,1.377607896,1.2162545,9.374967917,-0.043982297,0.022602014,0.02107485,306.579,-6.400475,7.813765
3.29485E+12,2.844845,1.375944137,1.213138504,9.378810061,-0.055588737,0.01160644,0.022296581,306.56998,-6.4062285,7.806318
3.29485E+12,2.849948,1.371347213,1.208541532,9.383407129,-0.05467244,0.01160644,0.01740966,306.5618,-6.4164166,7.7952323
3.29486E+12,2.854939,1.366911632,1.198962395,9.38012749,-0.053450707,0.014966198,0.019547688,306.55124,-6.422449,7.7881565
3.29486E+12,2.859929,1.362519735,1.185786704,9.371343742,-0.056199603,0.017715093,0.02443461,306.5415,-6.427512,7.7814403
3.29487E+12,2.864924,1.349498598,1.173784078,9.368199035,-0.04917465,0.018325957,0.02687807,306.53207,-6.4391255,7.7795815
3.29487E+12,2.869947,1.323694357,1.163462327,9.373359722,-0.04795292,0.015882496,0.02321288,306.52325,-6.448056,7.7778926
3.29488E+12,2.874943,1.308097127,1.154868154,9.382236409,-0.0421497,0.015577064,0.02565634,306.51108,-6.457549,7.7758455
3.29488E+12,2.879926,1.300916278,1.147687356,9.394204407,-0.05467244,0.016798794,0.028099801,306.5003,-6.4620304,7.7740374
3.29489E+12,2.884903,1.293744076,1.140515203,9.406157994,-0.05467244,0.016187929,0.02565634,306.49097,-6.4707446,7.769791
3.29489E+12,2.889941,1.286483969,1.133255146,9.418258089,-0.05589417,0.014355334,0.026572637,306.4803,-6.4751334,7.765929
3.2949E+12,2.894894,1.274402153,1.1237133,9.422307993,-0.061086524,0.014660766,0.03023783,306.47293,-6.4693427,7.753342
3.2949E+12,2.900014,1.257778333,1.111839125,9.419933109,-0.062308256,0.010995574,0.026572637,306.46777,-6.4647393,7.742646
3.29491E+12,2.904911,1.241878559,1.100482127,9.417661662,-0.06505715,0.007941248,0.02443461,306.45758,-6.4589357,7.731552
3.29491E+12,2.909941,1.225546955,1.088816678,9.415328523,-0.06078109,0.013439035,0.020158553,306.44913,-6.455144,7.7193074
3.29492E+12,2.914904,1.220236463,1.076206246,9.416987534,-0.06047566,0.018020526,0.024740042,306.43906,-6.4493437,7.7088017
3.29492E+12,2.919947,1.22979431,1.06186945,9.424156069,-0.053450707,0.013439035,0.027794369,306.43097,-6.447018,7.6995673
3.29493E+12,2.924917,1.239213802,1.047740186,9.431220836,-0.04520403,0.011301007,0.025350908,306.4228,-6.4426947,7.685051
3.29493E+12,2.929923,1.248701525,1.033508578,9.438336777,-0.047647487,0.001527163,0.021380283,306.4148,-6.4374027,7.6745605
3.29494E+12,2.934905,1.256383191,1.015610847,9.435446076,-0.044898596,0.01282817,0.02687807,306.41547,-6.4304876,7.6618867
3.29494E+12,2.93993,1.261226043,0.991396587,9.416074769,-0.05467244,0.014355334,0.029932396,306.41852,-6.4198704,7.6547956
3.29495E+12,2.944895,1.267424035,0.973548748,9.40113938,-0.044898596,0.007330383,0.019547688,306.41986,-6.410524,7.650569
3.29495E+12,2.94997,1.276005655,0.964967083,9.392557535,-0.039095376,0.014966198,0.02107485,306.41638,-6.397158,7.64249
3.29496E+12,2.954889,1.282991898,0.95828091,9.384670793,-0.03940081,0.014049901,0.017104227,306.41544,-6.381954,7.640384
3.29496E+12,2.959932,1.28051089,0.963242978,9.379708751,-0.04734206,0.003054326,0.015882496,306.41333,-6.3664613,7.639318
3.29497E+12,2.965064,1.277986097,0.968292617,9.374659138,-0.03940081,0.004276057,0.019242255,306.40918,-6.3539476,7.6370893
3.29497E+12,2.969955,1.275579869,0.973105124,9.369846657,-0.046731193,0.011301007,0.018936822,306.40656,-6.3354897,7.6362305
3.29498E+12,2.974909,1.273159126,0.977390474,9.365561343,-0.043066,0.014660766,0.013133603,306.4014,-6.3214445,7.6316066
3.29498E+12,2.979922,1.270763851,0.979785749,9.363166143,-0.040927973,0.008857546,0.014049901,306.3945,-6.3051176,7.6280804
3.29499E+12,2.984924,1.268373832,0.982175768,9.360776199,-0.04886922,0.003970624,0.011301007,306.39862,-6.286484,7.6243553
3.29499E+12,2.989944,1.265975212,0.984574388,9.358377654,-0.04337143,0.006414085,0.013744468,306.40082,-6.272545,7.620546
3.295E+12,2.994943,1.268556366,0.988620027,9.358749858,-0.040927973,0.006414085,0.019547688,306.4029,-6.256011,7.6189575
3.29501E+12,3.000616,1.290255549,0.99946959,9.369599081,-0.040927973,0.006414085,0.013744468,306.40735,-6.2411823,7.6165113
3.29501E+12,3.005042,1.296554786,1.0043865,9.379228675,-0.048258353,0.008857546,0.014966198,306.4087,-6.2259507,7.613109
3.29501E+12,3.009972,1.273114352,0.999698423,9.3932932,-0.04184427,0.01160644,0.010690142,306.41315,-6.2154717,7.609395
3.29502E+12,3.014956,1.257429958,0.997900079,9.406337119,-0.043066,0.014355334,0.011911872,306.41522,-6.201667,7.607524
3.29502E+12,3.020002,1.270806328,1.00681769,9.41525445,-0.047036625,0.006719518,0.014660766,306.41818,-6.1894326,7.607883
3.29503E+12,3.025089,1.283660888,1.014957058,9.423024681,-0.043066,0.013744468,0.019547688,306.41403,-6.1798973,7.5955224
3.29503E+12,3.029969,1.288435884,1.012569585,9.415862362,-0.047036625,0.008857546,0.014660766,306.41257,-6.1676335,7.5889173
3.29504E+12,3.035045,1.293402662,1.010086222,9.408412376,-0.052534413,0.013133603,0.013133603,306.40833,-6.1570535,7.579804
3.29504E+12,3.039978,1.298229518,1.007672819,9.401172269,-0.04153884,0.013133603,0.008552114,306.40674,-6.1507144,7.573383
3.29505E+12,3.044947,1.304385426,1.006118879,9.395402162,-0.04062254,0.003359759,0.013133603,306.4033,-6.137441,7.5659704
3.29505E+12,3.049984,1.319188302,1.010348272,9.399631422,-0.04886922,0.005497787,0.01282817,306.40225,-6.12548,7.555234
3.29506E+12,3.054983,1.333879502,1.014545758,9.403828776,-0.051618114,0.007330383,0.013439035,306.39896,-6.1145353,7.549607
3.29506E+12,3.059987,1.348585396,1.018747442,9.408030329,-0.04520403,0.003970624,0.013744468,306.39594,-6.1042886,7.545081
3.29507E+12,3.064974,1.36324133,1.022934851,9.412217607,-0.038789943,0.014049901,0.012217305,306.39282,-6.0937257,7.536414
3.29508E+12,3.070652,1.379026156,1.037442052,9.401277348,-0.040317107,0.007635816,0.008552114,306.3971,-6.0817323,7.536977
3.29508E+12,3.074944,1.390550497,1.052807933,9.385911587,-0.04520403,0.014049901,0.012217305,306.3989,-6.070758,7.5313063
3.29508E+12,3.079919,1.396070839,1.060882716,9.377836928,-0.037873644,0.008552114,0.009162978,306.4007,-6.069442,7.540156
3.29509E+12,3.084955,1.390982933,1.055794757,9.382924994,-0.032070424,0.015882496,0.007635816,306.40036,-6.0662346,7.5435486
3.29509E+12,3.089941,1.391193346,1.066230661,9.380158282,-0.038179077,0.003970624,0.008857546,306.40167,-6.0672073,7.5584416
3.2951E+12,3.094926,1.395976898,1.090148671,9.370591128,-0.039095376,0.017715093,0.011911872,306.4018,-6.071146,7.563657
3.2951E+12,3.099944,1.400730115,1.088750724,9.373666772,-0.03481932,0.013744468,0.007941248,306.40033,-6.072002,7.5700817
3.29511E+12,3.104944,1.405412689,1.065337855,9.387714542,-0.042455133,0.015882496,0.010690142,306.3955,-6.0688505,7.5711555
3.29511E+12,3.109939,1.410112539,1.0534488,9.397169998,-0.03145956,0.02321288,0.009773844,306.39694,-6.0723314,7.568085
3.29512E+12,3.114963,1.414862507,1.0534488,9.401919884,-0.040317107,0.013133603,0.015882496,306.396,-6.0677304,7.5697527
3.29512E+12,3.119936,1.419564257,1.0534488,9.406621552,-0.029321533,0.015882496,0.009468411,306.39575,-6.0681133,7.566796
3.29513E+12,3.124942,1.424297207,1.0534488,9.411354419,-0.03268129,0.013439035,0.007635816,306.39294,-6.061659,7.5685587
3.29513E+12,3.129908,1.428992338,1.0534488,9.416049469,-0.034208454,0.02076942,0.005192355,306.39178,-6.059187,7.566588
3.29514E+12,3.134949,1.433758379,1.0534488,9.420815427,-0.036651913,0.01985312,0.006108652,306.3905,-6.055545,7.567735
3.29514E+12,3.140238,1.435407529,1.057902732,9.419124092,-0.029321533,0.009162978,0.01038471,306.39478,-6.055168,7.575538
3.29515E+12,3.144937,1.433197051,1.066744736,9.410282133,-0.037873644,0.022602014,0.01740966,306.39716,-6.04957,7.5767
3.29515E+12,3.149904,1.430860501,1.076091031,9.400935887,-0.032375857,0.024740042,0.014660766,306.40082,-6.0495653,7.5855255
3.29516E+12,3.154949,1.42848726,1.085584096,9.391442872,-0.036957346,0.024129177,0.01160644,306.4021,-6.044141,7.5913715
3.29516E+12,3.159871,1.425430144,1.09327014,9.387542179,-0.034208454,0.020463986,0.006414085,306.4048,-6.0426264,7.597207
3.29517E+12,3.164959,1.420738288,1.097961947,9.394579791,-0.03756821,0.016493361,0.013439035,306.40472,-6.037849,7.603459
3.29517E+12,3.16989,1.416191209,1.102508979,9.401400244,-0.033292156,0.020463986,0.017104227,306.40308,-6.043157,7.6059704
3.29518E+12,3.174944,1.411530706,1.107169433,9.408390828,-0.043066,0.021380283,0.013133603,306.40182,-6.0434375,7.610346
3.29518E+12,3.179902,1.406064408,1.110046549,9.413138021,-0.038179077,0.025350908,0.013439035,306.40506,-6.051486,7.6222396
3.29519E+12,3.184954,1.39639676,1.1052127,9.408304576,-0.03726278,0.02107485,0.014660766,306.40927,-6.0556216,7.63571
3.29519E+12,3.189908,1.386688346,1.103671185,9.404425,-0.03390302,0.016493361,0.016187929,306.4145,-6.0634103,7.645859
3.2952E+12,3.194926,1.375811432,1.116723482,9.404425,-0.031154128,0.024129177,0.013133603,306.42032,-6.071214,7.6532874
3.2952E+12,3.19995,1.364921512,1.129791386,9.404425,-0.04062254,0.016493361,0.008552114,306.42676,-6.075914,7.6649013
3.29521E+12,3.204944,1.35409662,1.142781256,9.404425,-0.036651913,0.012522738,0.009468411,306.43204,-6.0848994,7.6730943
3.29521E+12,3.209906,1.34334109,1.155687892,9.404425,-0.03145956,0.011301007,0.014355334,306.4375,-6.091429,7.6823535
3.29522E+12,3.21497,1.324944846,1.154841562,9.384664808,-0.03268129,0.01863139,0.015271631,306.44354,-6.097195,7.68985
3.29522E+12,3.219922,1.304716946,1.149784586,9.359379932,-0.03359759,0.014049901,0.009773844,306.45032,-6.1043706,7.7007384
3.29523E+12,3.224945,1.300350611,1.138740856,9.358636123,-0.027488936,0.01985312,0.011911872,306.44467,-6.1262608,7.7010946
3.29523E+12,3.229895,1.298028877,1.127132187,9.360957784,-0.035124753,0.016187929,0.014660766,306.4411,-6.14356,7.7051754
3.29524E+12,3.234948,1.295658833,1.115281964,9.363327755,-0.042760566,0.009162978,0.013439035,306.43887,-6.162253,7.706304
3.29524E+12,3.239873,1.293348825,1.103731925,9.36563769,-0.040011674,0.019242255,0.019242255,306.4336,-6.1807895,7.703852
3.29525E+12,3.244968,1.285428967,1.112492791,9.358677545,-0.04642576,0.020463986,0.016798794,306.43488,-6.1938233,7.707362
3.29525E+12,3.249931,1.27636097,1.126094716,9.349609642,-0.038179077,0.015577064,0.010995574,306.43546,-6.211243,7.709725
3.29526E+12,3.254961,1.277104548,1.124979354,9.348658651,-0.03970624,0.000305433,0.012217305,306.4331,-6.219709,7.714968
3.29526E+12,3.259919,1.281795752,1.117942585,9.351004289,-0.035430185,0.016187929,0.014049901,306.43152,-6.232011,7.712459
3.29527E+12,3.264991,1.286594822,1.110744018,9.353403862,-0.036651913,0.004276057,0.014049901,306.43872,-6.2431192,7.722408
3.29527E+12,3.269926,1.291264264,1.103739892,9.355738619,-0.029321533,0.008552114,0.013133603,306.4446,-6.257502,7.7230983
3.29528E+12,3.27497,1.29605619,1.110894369,9.362915179,-0.04428773,0.009773844,0.015577064,306.44998,-6.264755,7.7279015
3.29528E+12,3.279967,1.300813175,1.125165324,9.372428851,-0.032986723,0.008857546,0.013439035,306.4568,-6.28139,7.73171
3.29529E+12,3.284982,1.296199996,1.12694033,9.394431283,-0.03390302,0.007635816,0.01282817,306.45847,-6.2911067,7.7404113
3.29529E+12,3.290096,1.286520892,1.122100829,9.423468393,-0.021685716,0.006108652,0.012217305,306.4608,-6.307425,7.7490535
3.2953E+12,3.294967,1.281775653,1.122002763,9.431638606,-0.03359759,0.00580322,0.009468411,306.46494,-6.3183875,7.7572308
3.2953E+12,3.300062,1.279334646,1.124443795,9.429197522,-0.04153884,0.009773844,0.015577064,306.46667,-6.3330913,7.7645226
3.29531E+12,3.304977,1.276979877,1.126798589,9.426842679,-0.04153884,0.014355334,0.008246681,306.473,-6.3461018,7.7693014
3.29531E+12,3.309977,1.274584385,1.129194106,9.424447112,-0.036957346,0.014660766,0.013133603,306.47406,-6.3571324,7.7745194
3.29532E+12,3.315005,1.269118779,1.128531026,9.420513749,-0.040927973,0.011911872,0.014049901,306.47412,-6.36875,7.77889
3.29532E+12,3.319987,1.261993743,1.126156014,9.415763873,-0.05131268,0.011301007,0.01282817,306.47336,-6.379303,7.7824855
3.29533E+12,3.325617,1.253941966,1.123472089,9.41039619,-0.054367006,0.014049901,0.01282817,306.4728,-6.3913646,7.7850103
3.29533E+12,3.329969,1.247717928,1.121397409,9.406246961,-0.04520403,0.011301007,0.020158553,306.47076,-6.4033914,7.7893157
3.29534E+12,3.334983,1.24647551,1.114523958,9.405915486,-0.051618114,0.017715093,0.01863139,306.472,-6.4046025,7.7836423
3.29534E+12,3.339985,1.248878357,1.104912571,9.408318132,-0.045814894,0.01160644,0.01985312,306.47092,-6.411344,7.7827125
3.29535E+12,3.344971,1.251273518,1.095331928,9.410713093,-0.051923547,0.01863139,0.02076942,306.47018,-6.412776,7.774623
3.29535E+12,3.350093,1.25373401,1.08548996,9.413173379,-0.04886922,0.013744468,0.018020526,306.47083,-6.4184318,7.771701
3.29536E+12,3.354974,1.251661615,1.07637903,9.409650933,-0.05009095,0.017104227,0.014966198,306.47388,-6.4182506,7.7635775
3.29536E+12,3.360096,1.246957931,1.066971662,9.402595505,-0.048258353,0.009468411,0.011911872,306.4782,-6.419933,7.760041
3.29537E+12,3.365011,1.242444341,1.057944482,9.395825215,-0.047036625,0.01740966,0.01863139,306.47787,-6.4174924,7.7528615
3.29537E+12,3.369982,1.237879325,1.04881445,9.388977786,-0.04428773,0.010079277,0.02321288,306.47968,-6.416298,7.7521157
3.29538E+12,3.37497,1.23992327,1.037099221,9.389786265,-0.053450707,0.006719518,0.014966198,306.48016,-6.4134836,7.7470937
3.29538E+12,3.379976,1.249763472,1.022338868,9.399626671,-0.048563786,0.015882496,0.014660766,306.477,-6.414941,7.7411184
3.29539E+12,3.38498,1.259527376,1.002727309,9.40194211,-0.043676864,0.013133603,0.021380283,306.4734,-6.411345,7.7391734
3.29539E+12,3.389977,1.269208799,0.978523754,9.397101298,-0.05009095,0.019242255,0.015882496,306.47293,-6.406552,7.731899
3.2954E+12,3.395628,1.278385499,0.961030582,9.401074877,-0.054367006,0.006108652,0.024740042,306.46338,-6.398187,7.7295465
3.2954E+12,3.399981,1.284499596,0.95287847,9.409226936,-0.044898596,0.011911872,0.025350908,306.45718,-6.3927255,7.7198954
3.29541E+12,3.404935,1.291457841,0.94360083,9.418504515,-0.04734206,0.008552114,0.02321288,306.4472,-6.3784533,7.719404
3.29541E+12,3.409971,1.298531261,0.934169625,9.42793566,-0.051618114,0.007635816,0.01740966,306.43805,-6.366792,7.716634
3.29542E+12,3.41492,1.308707405,0.933124654,9.437329491,-0.049785517,0.006719518,0.01985312,306.42197,-6.3571,7.711809
3.29542E+12,3.420256,1.32416158,0.943427437,9.447632489,-0.049480084,0.01282817,0.022296581,306.4076,-6.346258,7.705323
3.29543E+12,3.424905,1.326999654,0.946015577,9.448132366,-0.04337143,0.006108652,0.020463986,306.3917,-6.333969,7.705438
3.29543E+12,3.429931,1.317573825,0.941302662,9.43870634,-0.037873644,0.018020526,0.017715093,306.37485,-6.321842,7.6987777
3.29544E+12,3.434894,1.317784213,0.940447588,9.431234422,-0.04153884,0.010079277,0.018325957,306.3587,-6.3099213,7.701416
3.29544E+12,3.439938,1.332293238,0.945283929,9.42639798,-0.05009095,0.009773844,0.013439035,306.3446,-6.298676,7.698437
3.29545E+12,3.444923,1.344334226,0.944522624,9.4271593,-0.047036625,0.009162978,0.016798794,306.33356,-6.2858424,7.6970468
3.29545E+12,3.449957,1.353154133,0.935702717,9.435979392,-0.03604105,0.014355334,0.011911872,306.3262,-6.273738,7.693841
3.29546E+12,3.454944,1.363028157,0.929990767,9.44325227,-0.034513887,0.019242255,0.00580322,306.318,-6.2603745,7.6929975
3.29546E+12,3.459934,1.376776234,0.934573452,9.44554366,-0.03634648,0.011301007,0.01038471,306.30844,-6.2492065,7.6946344
3.29547E+12,3.465433,1.39192667,0.939623588,9.44806878,-0.033292156,0.018020526,0.008857546,306.30035,-6.238508,7.692044
3.29547E+12,3.469948,1.404366062,0.943770045,9.450142052,-0.03359759,0.010995574,0.007941248,306.29153,-6.2264137,7.6958447
3.29548E+12,3.47503,1.418355667,0.948433241,9.451156129,-0.028710667,0.020158553,0.005497787,306.29242,-6.211638,7.6940193
3.29548E+12,3.479929,1.431691842,0.952878651,9.435597139,-0.03970624,0.027488936,0.010079277,306.29166,-6.192505,7.6948895
3.29549E+12,3.485121,1.445825628,0.957589934,9.419107595,-0.032986723,0.017715093,-0.001221731,306.29443,-6.175943,7.6932797
3.29549E+12,3.489944,1.458954913,0.961966381,9.403789978,-0.034208454,0.018936822,-0.003665192,306.2927,-6.1541634,7.6871867
3.2955E+12,3.494922,1.472506143,0.966483478,9.387980087,-0.027794369,0.021991149,0.000305433,306.29248,-6.13725,7.6834035
3.2955E+12,3.500016,1.472763475,0.973451676,9.397659394,-0.03390302,0.018020526,-0.002138028,306.2949,-6.117373,7.6812024
3.29551E+12,3.504936,1.470368179,0.980637562,9.412031217,-0.03726278,0.018936822,-0.000916298,306.29477,-6.1003256,7.6771927
3.29551E+12,3.509939,1.467932476,0.987944673,9.426645491,-0.018936822,0.016187929,-0.003970624,306.2981,-6.0896626,7.68153
3.29552E+12,3.514906,1.465514298,0.995199205,9.441154605,-0.013133603,0.02107485,-0.000610865,306.2988,-6.0747128,7.6836567
3.29552E+12,3.519949,1.447996536,1.030497762,9.438418183,-0.012217305,0.022907447,0.000305433,306.30115,-6.064139,7.687208
3.29553E+12,3.524875,1.429120796,1.06824939,9.433699137,-0.019242255,0.020158553,-0.009162978,306.30536,-6.0535197,7.690441
3.29553E+12,3.529922,1.419165023,1.068712802,9.437044679,-0.010995574,0.014660766,-0.00702495,306.31232,-6.0486298,7.6955743
3.29554E+12,3.535033,1.410288067,1.06427437,9.441483204,-0.00580322,0.019242255,-0.001527163,306.3205,-6.041453,7.6983213
3.29554E+12,3.539941,1.396110437,1.069699931,9.434389086,-0.004886922,0.023823744,-0.002443461,306.33466,-6.042888,7.698238
3.29555E+12,3.544934,1.379303938,1.07930366,9.422384426,-0.013133603,0.016187929,-0.005497787,306.3478,-6.043115,7.7003875
3.29555E+12,3.549947,1.362430119,1.088945856,9.410331679,-0.007330383,0.015882496,0.007330383,306.35562,-6.0465946,7.6978993
3.29556E+12,3.554931,1.345653914,1.098532274,9.398348658,-0.011301007,0.023518313,0.012217305,306.36636,-6.0455027,7.694978
3.29556E+12,3.559944,1.33106085,1.104563517,9.398078784,0.001527163,0.022602014,-0.002443461,306.38284,-6.0449147,7.6895247
3.29557E+12,3.564977,1.317346879,1.10913484,9.402650203,-0.01038471,0.022296581,0.002748894,306.39175,-6.035541,7.682705
3.29557E+12,3.569948,1.300205307,1.107955284,9.407379069,-0.002748894,0.026267206,0.009162978,306.41302,-6.037412,7.6694775
3.29558E+12,3.574945,1.280632549,1.103062108,9.412271837,-0.015882496,0.022907447,0.010995574,306.43396,-6.0303326,7.6587505
3.29558E+12,3.57992,1.26155266,1.11349544,9.410960594,-0.008246681,0.026572637,0.00580322,306.45575,-6.032889,7.642933
3.29559E+12,3.584947,1.242499499,1.132548601,9.406197702,-0.008246681,0.03023783,0.001832596,306.4764,-6.029774,7.6285257
3.29559E+12,3.589969,1.223419027,1.145634537,9.386441328,-0.013744468,0.022296581,0.014660766,306.50146,-6.028109,7.6219234
3.2956E+12,3.594965,1.204410011,1.155139044,9.357927705,-0.015271631,0.019547688,0.016798794,306.52994,-6.0284104,7.6125255
3.2956E+12,3.599959,1.191290533,1.161698814,9.344058756,-0.012522738,0.017715093,0.016493361,306.5529,-6.0338907,7.5999846
3.29561E+12,3.604975,1.181806382,1.166440939,9.339316581,-0.01282817,0.01282817,0.015271631,306.57535,-6.038149,7.589386
3.29561E+12,3.609971,1.176696551,1.175874993,9.33988855,-0.007330383,0.013744468,0.009468411,306.59955,-6.044951,7.5704145
3.29562E+12,3.615217,1.174476102,1.189197691,9.344329542,-0.016798794,0.014355334,0.019547688,306.61942,-6.0469933,7.5537663
3.29562E+12,3.620104,1.172407604,1.201608675,9.348466623,-0.029626964,0.020463986,0.019547688,306.63965,-6.053266,7.532005
3.29563E+12,3.624985,1.170341646,1.214004422,9.352598625,-0.022296581,0.018936822,0.01863139,306.65735,-6.062278,7.513026
3.29563E+12,3.630005,1.167329041,1.226178452,9.355499523,-0.016798794,0.016493361,0.020463986,306.6739,-6.067183,7.493217
3.29564E+12,3.634998,1.153003957,1.230953463,9.34117419,-0.029932396,0.017715093,0.025045475,306.68967,-6.068898,7.473379
3.29564E+12,3.640015,1.140528241,1.235112021,9.329586481,-0.03390302,0.01038471,0.019242255,306.71106,-6.079883,7.454947
3.29565E+12,3.644965,1.152775569,1.231029592,9.354081138,-0.03573562,0.013439035,0.02687807,306.7267,-6.087102,7.434288
3.29566E+12,3.650712,1.166994841,1.226289852,9.382519681,-0.036651913,0.024740042,0.019242255,306.7532,-6.102569,7.4228196
3.29566E+12,3.65498,1.1683705,1.22465015,9.382908712,-0.035430185,0.015271631,0.014355334,306.77698,-6.117539,7.4168015
3.29566E+12,3.659873,1.1683705,1.223093208,9.379794844,-0.032986723,0.021380283,0.017104227,306.79965,-6.1324334,7.40331
3.29567E+12,3.664999,1.1683705,1.221462126,9.376532697,-0.036651913,0.014049901,0.02107485,306.82245,-6.144196,7.3981175
3.29567E+12,3.669885,1.1683705,1.219907411,9.373423284,-0.039095376,0.013133603,0.018020526,306.84576,-6.1569943,7.3893323
3.29568E+12,3.674975,1.1683705,1.218287784,9.370184047,-0.046120327,0.004886922,0.018936822,306.86246,-6.169595,7.384486
3.29568E+12,3.679892,1.1683705,1.216723205,9.367054906,-0.047036625,0.004276057,0.018020526,306.88013,-6.1831913,7.377644
3.29569E+12,3.68497,1.171798257,1.212826743,9.372972977,-0.04917465,-0.000305433,0.016187929,306.898,-6.19427,7.374285
3.29569E+12,3.689951,1.176534361,1.208090639,9.382445136,-0.04734206,0.000610865,0.009773844,306.91708,-6.2062573,7.3693647
3.2957E+12,3.694965,1.181342973,1.199886353,9.381875256,-0.04795292,0.002748894,0.009162978,306.93488,-6.2151513,7.3651094
3.2957E+12,3.699977,1.186166986,1.190238329,9.377051143,-0.04184427,-0.002748894,0.011301007,306.95364,-6.226509,7.3626375
3.29571E+12,3.704973,1.192520812,1.189189671,9.375694,-0.050701816,-0.00580322,0.013744468,306.97134,-6.232269,7.3595853
3.29571E+12,3.709967,1.199479424,1.191509208,9.375694,-0.049785517,-0.00580322,0.009162978,306.9903,-6.242592,7.3570137
3.29572E+12,3.715061,1.206577376,1.193875192,9.375694,-0.050396383,-0.006719518,0.013439035,307.00467,-6.2478027,7.3569756
3.29573E+12,3.720685,1.214413826,1.196487342,9.375694,-0.055283304,-0.000916298,0.015577064,307.0205,-6.252278,7.354718
3.29573E+12,3.724975,1.225325168,1.185006645,9.384764857,-0.052534413,-0.005497787,0.007941248,307.03458,-6.266035,7.3614335
3.29573E+12,3.729966,1.240573299,1.16467575,9.400013307,-0.0571159,-0.001527163,0.017104227,307.0426,-6.2753663,7.3644214
3.29574E+12,3.734957,1.257376979,1.143021866,9.399918758,-0.06047566,-0.005192355,0.017715093,307.04953,-6.286373,7.367368
3.29574E+12,3.739945,1.274803449,1.120842727,9.393581816,-0.0580322,-0.008246681,0.012522738,307.05536,-6.2973437,7.36903
3.29575E+12,3.744957,1.292313768,1.098556871,9.387214384,-0.061391957,-0.003054326,0.013133603,307.0561,-6.3022227,7.3727565
3.29575E+12,3.749953,1.309768188,1.076342159,9.380867279,-0.06291912,-0.001832596,0.008552114,307.05994,-6.308591,7.3778977
3.29576E+12,3.754945,1.327208633,1.054145234,9.374525255,-0.06261369,-0.009468411,0.013133603,307.0611,-6.3140106,7.384243
3.29576E+12,3.759948,1.344687509,1.031899397,9.368169256,-0.06169739,-0.010079277,0.01282817,307.06464,-6.3194737,7.3877287
3.29577E+12,3.764949,1.352471118,1.012941047,9.371470738,-0.05497787,0.002138028,0.015271631,307.0658,-6.326334,7.389734
3.29577E+12,3.76996,1.355640091,0.995511686,9.379393089,-0.060170226,-0.004886922,0.012522738,307.06918,-6.3301272,7.39702
3.29578E+12,3.77495,1.358795784,0.978155368,9.387282238,-0.06047566,0.002443461,0.003054326,307.06003,-6.330803,7.411595
3.29578E+12,3.779962,1.361965389,0.96072253,9.395206169,-0.06078109,0.002748894,0.01740966,307.04532,-6.3290777,7.4303293
3.29579E+12,3.784946,1.365117287,0.943387081,9.403085832,-0.055588737,0.005497787,0.009773844,307.0394,-6.329888,7.44484
3.29579E+12,3.790521,1.368642936,0.923996004,9.411899862,-0.05955936,0.004276057,0.013439035,307.02634,-6.326928,7.460802
3.2958E+12,3.794972,1.377767109,0.908328452,9.427807229,-0.058643065,-0.000305433,0.013744468,307.01498,-6.319964,7.466116
3.2958E+12,3.800051,1.391243392,0.890359989,9.450267779,-0.06047566,-0.000916298,0.011301007,307.00345,-6.3111973,7.4706597
3.29581E+12,3.804902,1.407619246,0.885768975,9.450128098,-0.05681047,0.01160644,0.014966198,306.98434,-6.2948565,7.476
3.29581E+12,3.809875,1.428650622,0.896284669,9.423838947,-0.059253927,0.016187929,0.016798794,306.9669,-6.2767625,7.4835386
3.29582E+12,3.814907,1.44249132,0.89872728,9.416986222,-0.05467244,0.014355334,0.016187929,306.94638,-6.2579784,7.4918146
3.29582E+12,3.819884,1.451861955,0.896384621,9.421671638,-0.062308256,0.012522738,0.015882496,306.92532,-6.235361,7.498859
3.29583E+12,3.824879,1.46126648,0.89403349,9.426373998,-0.048258353,0.016493361,0.014355334,306.90042,-6.223738,7.506264
3.29583E+12,3.829884,1.470689832,0.891677652,9.431085773,-0.046731193,0.004581489,0.01038471,306.87717,-6.206784,7.518569
3.29584E+12,3.834919,1.466814435,0.897321208,9.434490658,-0.043982297,0.011911872,0.007635816,306.85358,-6.194351,7.5242167
3.29584E+12,3.839892,1.452767042,0.909027386,9.436831943,-0.042455133,0.011911872,0.011301007,306.83017,-6.1820636,7.535267
3.29585E+12,3.844887,1.438657506,0.920785351,9.439183585,-0.03726278,0.008552114,0.009468411,306.80768,-6.1704025,7.5475698
3.29585E+12,3.849962,1.42432199,0.932731632,9.441572892,-0.040317107,0.012522738,0.01282817,306.78275,-6.1566453,7.5579066
3.29586E+12,3.854882,1.41157351,0.940844647,9.446208338,-0.035124753,0.002138028,0.010690142,306.76904,-6.142518,7.574013
3.29586E+12,3.859882,1.399787525,0.945559044,9.453279816,-0.016187929,0.012217305,0.014966198,306.75186,-6.131375,7.583262
3.29587E+12,3.864889,1.387985039,0.95028004,9.460361194,-0.027794369,0.01160644,0.014355334,306.74945,-6.115671,7.596004
3.29587E+12,3.869884,1.37621084,0.954989722,9.4674256,-0.030543262,0.007635816,0.011911872,306.74603,-6.1079054,7.6066747
3.29588E+12,3.874902,1.366786517,0.959029141,9.466068263,-0.025045475,0.009773844,0.015577064,306.7408,-6.1026435,7.6199923
3.29588E+12,3.879944,1.36050293,0.962170935,9.453501154,-0.02076942,0.007941248,0.01985312,306.7363,-6.0964465,7.635117
3.29589E+12,3.884879,1.354352692,0.965246054,9.441200741,-0.015271631,-0.000305433,0.011911872,306.7366,-6.094872,7.646891
3.29589E+12,3.889943,1.348041687,0.968401557,9.428578798,-0.013133603,0.014049901,0.00702495,306.7341,-6.093275,7.652691
3.2959E+12,3.894867,1.341905157,0.971469821,9.416305802,-0.012217305,0.009773844,0.010995574,306.73734,-6.0979695,7.6765513
3.2959E+12,3.899959,1.335559258,0.974642771,9.403614069,-0.020463986,0.016798794,0.012522738,306.7417,-6.1007414,7.6922555
3.29591E+12,3.904876,1.327062202,0.979576965,9.390733988,-0.012217305,0.014660766,0.00580322,306.74756,-6.1084037,7.7110176
3.29591E+12,3.909973,1.31208431,0.989562227,9.375756044,-0.009162978,0.007330383,0.013744468,306.74854,-6.1114893,7.729211
3.29592E+12,3.914912,1.297767365,0.999106846,9.367676924,-0.009773844,0.001527163,0.008552114,306.75717,-6.119228,7.7439227
3.29592E+12,3.919987,1.283455695,1.008647926,9.372447315,-0.010995574,0.014966198,0.01740966,306.759,-6.1265235,7.755372
3.29593E+12,3.924905,1.271016467,1.021888596,9.377043444,-0.013744468,0.012217305,0.015577064,306.76767,-6.135859,7.7698393
3.29593E+12,3.929968,1.261683005,1.045222301,9.381710273,-0.000916298,0.016798794,0.018936822,306.77158,-6.1484346,7.778437
3.29594E+12,3.934918,1.251467942,1.067666238,9.383724142,-0.002138028,0.006719518,0.010995574,306.78296,-6.1554227,7.7860622
3.29594E+12,3.939971,1.237086376,1.089238586,9.37653346,-0.012522738,0.003970624,0.013133603,306.79004,-6.1626577,7.790503
3.29595E+12,3.944934,1.222960964,1.110426704,9.369470852,-0.013439035,0.004886922,0.01160644,306.80328,-6.17666,7.7937536
3.29595E+12,3.950041,1.208425707,1.13222959,9.362203325,-0.005192355,0.015882496,0.016798794,306.8136,-6.1897182,7.794933
3.29596E+12,3.95495,1.196232178,1.149795951,9.356830565,-0.012522738,0.010995574,0.02107485,306.8165,-6.2059345,7.803192
3.29596E+12,3.959969,1.191543884,1.152921497,9.358393281,-0.01740966,0.007941248,0.00702495,306.82285,-6.225092,7.807162
3.29597E+12,3.965117,1.186735089,1.156127377,9.359996162,-0.014966198,0.00702495,0.014966198,306.83087,-6.2490373,7.8070965
3.29597E+12,3.969984,1.182188779,1.159158266,9.361511551,-0.021380283,0.013439035,0.015882496,306.84467,-6.2693596,7.804967
3.29598E+12,3.97497,1.17753131,1.162263261,9.363063992,-0.02687807,0.008246681,0.014355334,306.85416,-6.2927017,7.8074555
3.29598E+12,3.979977,1.172854225,1.165381335,9.364622972,-0.028710667,-0.000916298,0.014966198,306.86273,-6.31454,7.8092093
3.29599E+12,3.985146,1.167705866,1.167041236,9.367446771,-0.029932396,0.001527163,0.016493361,306.87122,-6.3344717,7.808948
3.29599E+12,3.989975,1.15900799,1.149645529,9.384842569,-0.021991149,0.008857546,0.017104227,306.87988,-6.3559732,7.809654
3.296E+12,3.99496,1.15002913,1.131687856,9.402800335,-0.032986723,0.010995574,0.01740966,306.8829,-6.37641,7.8066216
3.296E+12,3.999999,1.166328463,1.151452768,9.391591018,-0.03848451,0.000916298,0.01985312,306.88547,-6.3998423,7.805073
3.29601E+12,4.004878,1.184525456,1.174198997,9.377943024,-0.034208454,0.004581489,0.014355334,306.8898,-6.422629,7.798795
3.29601E+12,4.009982,1.183443819,1.173866997,9.377734183,-0.045814894,0.007635816,0.017715093,306.89005,-6.435346,7.79501
3.29602E+12,4.014984,1.178697408,1.169120561,9.380107438,-0.03268129,0.01863139,0.015882496,306.89307,-6.456234,7.787597
3.29602E+12,4.019978,1.173958588,1.164381717,9.382476898,-0.040011674,0.01038471,0.016798794,306.88568,-6.4784536,7.788117
3.29603E+12,4.024874,1.16931276,1.159735865,9.38479986,-0.037873644,0.006414085,0.014355334,306.87964,-6.5064354,7.7841916
3.29603E+12,4.029976,1.172215631,1.162638771,9.408341867,-0.043982297,0.013744468,0.020158553,306.86493,-6.530256,7.7763705
3.29604E+12,4.034885,1.176809388,1.167232576,9.435904506,-0.04153884,0.006719518,0.01160644,306.85608,-6.55692,7.7733164
3.29604E+12,4.039976,1.192225907,1.154091856,9.428453467,-0.04184427,0.006108652,0.017104227,306.83798,-6.5802464,7.766031
3.29605E+12,4.04549,1.212543905,1.133773805,9.408135576,-0.048563786,0.007941248,0.018020526,306.82425,-6.602149,7.7597666
3.29605E+12,4.050007,1.22633887,1.116617373,9.397701946,-0.04886922,0.006414085,0.017104227,306.80988,-6.61995,7.7483196
3.29606E+12,4.054956,1.240557545,1.09765914,9.388222631,-0.055588737,0.001527163,0.016798794,306.79553,-6.633436,7.737759
3.29606E+12,4.059986,1.260530174,1.092866377,9.3841606,-0.042455133,0.007941248,0.016798794,306.7786,-6.6483617,7.7284946
3.29607E+12,4.065067,1.283168619,1.094483408,9.382543535,-0.05131268,0.003054326,0.010079277,306.76462,-6.655035,7.723838
3.29607E+12,4.069987,1.305089727,1.096049202,9.380977708,-0.04642576,0.003665192,0.009468411,306.74625,-6.665071,7.719184
3.29608E+12,4.07493,1.327113312,1.097622315,9.379404562,-0.04184427,0.003665192,0.004581489,306.7384897,-6.669270699,7.718704016
3.29608E+12,4.08,1.349702746,1.099235846,9.377790998,-0.037873644,-0.003970624,0.009162978,306.73053,-6.6735783,7.7182117
3.29609E+12,4.084968,1.371837719,1.100816916,9.376209895,-0.040317107,-0.002138028,0.01160644,306.7173,-6.677122,7.713531
3.29609E+12,4.089976,1.375834678,1.093269204,9.380532259,-0.041233405,-0.002748894,0.011911872,306.7058,-6.6824636,7.7110043
3.2961E+12,4.094993,1.371057017,1.081324987,9.387698938,-0.04642576,-0.002748894,0.013133603,306.69357,-6.685546,7.708036
3.2961E+12,4.099948,1.366338397,1.069528377,9.394777052,-0.048258353,-0.001221731,0.014049901,306.6813,-6.6853695,7.7143335
3.29611E+12,4.104998,1.36152931,1.057505596,9.401990872,-0.040927973,-0.003970624,0.010079277,306.67038,-6.686379,7.7216024
3.29611E+12,4.10997,1.358328336,1.058183593,9.401268405,-0.038789943,0.002138028,0.013133603,306.65704,-6.6850247,7.72608
3.29612E+12,4.115053,1.355873526,1.065548022,9.396358684,-0.04642576,-0.002748894,0.015882496,306.64554,-6.6830244,7.7341876
3.29612E+12,4.119976,1.353495988,1.072680637,9.391603508,-0.035430185,0.007635816,0.019242255,306.6307,-6.682889,7.7356563
3.29613E+12,4.124974,1.351082228,1.079921915,9.386775888,-0.04550946,0.013744468,0.02443461,306.61505,-6.674448,7.739812
3.29613E+12,4.129967,1.360173066,1.075617,9.391833337,-0.0421497,0.008857546,0.01985312,306.60272,-6.6717424,7.7431755
3.29614E+12,4.134985,1.374552543,1.066030648,9.401419889,-0.041233405,0.005497787,0.019242255,306.58777,-6.6652107,7.7447796
3.29614E+12,4.139974,1.375892577,1.056690504,9.404425,-0.046120327,-0.000610865,0.010079277,306.57874,-6.661235,7.7470603
3.29615E+12,4.144983,1.371247927,1.047401132,9.404425,-0.03634648,0.002748894,0.019242255,306.56458,-6.660979,7.748228
3.29615E+12,4.149947,1.366645005,1.038195215,9.404425,-0.03390302,0.004886922,0.018325957,306.55453,-6.6557655,7.7530565
3.29616E+12,4.154975,1.361982737,1.028870607,9.404425,-0.042455133,0.004276057,0.023823744,306.5402,-6.6495867,7.7581816
3.29616E+12,4.159972,1.347486392,1.042106617,9.399456813,-0.03970624,0.001527163,0.021685716,306.54468,-6.639874,7.766426
3.29617E+12,4.165011,1.324794068,1.073875918,9.390379694,-0.03848451,0.002443461,0.023518313,306.54614,-6.627303,7.773927
3.29617E+12,4.169975,1.313058351,1.089684499,9.385271,-0.03726278,0.008857546,0.032986723,306.54446,-6.612859,7.7800307
3.29618E+12,4.174972,1.315490515,1.08482017,9.385271,-0.038789943,0.009468411,0.022907447,306.5479,-6.5990577,7.7867637
3.29618E+12,4.17993,1.317903697,1.079993805,9.385271,-0.04184427,0.009162978,0.02687807,306.54898,-6.591187,7.788072
3.29619E+12,4.185241,1.320488694,1.074823813,9.385271,-0.04184427,0.015577064,0.024740042,306.55432,-6.584624,7.786744
3.29619E+12,4.189938,1.335283217,1.07032176,9.373867799,-0.043982297,0.01160644,0.024129177,306.56378,-6.568931,7.783428
3.2962E+12,4.194942,1.363636766,1.06559616,9.3502398,-0.03359759,0.018936822,0.023823744,306.57294,-6.557417,7.77523
3.2962E+12,4.200034,1.372775181,1.06721556,9.352051949,-0.04428773,0.012522738,0.016493361,306.58347,-6.5383973,7.7730484
3.29621E+12,4.204954,1.359728008,1.075913706,9.382495641,-0.040927973,0.002138028,0.014355334,306.59222,-6.5266075,7.770277
3.29621E+12,4.209907,1.346831301,1.0821792,9.40559113,-0.04184427,0.006414085,0.021380283,306.59863,-6.5102935,7.7715864
3.29622E+12,4.215034,1.334101134,1.0821792,9.409834386,-0.038789943,0.01282817,0.019547688,306.60812,-6.4969773,7.774752
3.29622E+12,4.219936,1.321929634,1.0821792,9.413891425,-0.04337143,0.01160644,0.016493361,306.61743,-6.4831676,7.776092
3.29623E+12,4.224973,1.309422935,1.0821792,9.418060195,-0.042455133,0.008857546,0.012522738,306.62717,-6.4723163,7.7759905
3.29623E+12,4.229938,1.297095008,1.0821792,9.422169375,-0.05009095,0.000610865,0.021991149,306.63385,-6.4577847,7.778172
3.29624E+12,4.234984,1.286422747,1.07895609,9.417131982,-0.04337143,0.005497787,0.01863139,306.64478,-6.4486713,7.7768497
3.29624E+12,4.239979,1.276793849,1.074141666,9.407503436,-0.032986723,0.008552114,0.014049901,306.65338,-6.4385667,7.7786083
3.29625E+12,4.24499,1.2737153,1.067789801,9.407633299,-0.040927973,0.007941248,0.017104227,306.66455,-6.424948,7.776122
3.29625E+12,4.250009,1.2737153,1.060714688,9.412349893,-0.03573562,0.003970624,0.015271631,306.6782,-6.4187407,7.773502
3.29626E+12,4.254971,1.2737153,1.053719926,9.417012922,-0.036651913,0.006414085,0.018325957,306.68918,-6.4083724,7.7685633
3.29626E+12,4.259974,1.2737153,1.046667367,9.42171448,-0.041233405,0.009162978,0.015577064,306.7022,-6.3991003,7.764495
3.29627E+12,4.26499,1.276662949,1.052715039,9.414735084,-0.043982297,0.005192355,0.014049901,306.71527,-6.393128,7.766567
3.29627E+12,4.269984,1.281516413,1.067275584,9.400174741,-0.03481932,0.01160644,0.014660766,306.72775,-6.3895535,7.764828
3.29628E+12,4.274974,1.277265088,1.054521538,9.406901824,-0.03176499,0.010079277,0.019547688,306.73813,-6.3811817,7.7669134
3.29628E+12,4.279981,1.267724541,1.025899699,9.425982917,-0.03940081,0.014660766,0.015577064,306.75018,-6.3729796,7.7651367
3.29629E+12,4.284979,1.267173004,1.018176004,9.430120433,-0.03940081,0.00702495,0.014966198,306.7693,-6.3706517,7.775096
3.29629E+12,4.289978,1.272041259,1.023044259,9.425252076,-0.03604105,0.006108652,0.005497787,306.79123,-6.367861,7.7811275
3.2963E+12,4.294955,1.276734546,1.018679745,9.420558659,-0.04062254,-0.000305433,0.009162978,306.8073,-6.3579893,7.790459
3.2963E+12,4.299964,1.281376475,1.009395791,9.415916585,-0.03604105,0.004276057,0.010995574,306.82587,-6.352432,7.796231
3.29631E+12,4.304938,1.286145371,1.019831286,9.408294556,-0.030543262,0.007330383,0.01160644,306.8419,-6.3447437,7.800571
3.29631E+12,4.309933,1.291048222,1.044345079,9.398489367,-0.030543262,0.007941248,0.014660766,306.85623,-6.3369613,7.804257
3.29632E+12,4.314946,1.291383895,1.050478636,9.400788265,-0.035124753,0.00580322,0.016493361,306.8692,-6.328047,7.808801
3.29632E+12,4.319985,1.289014216,1.045739353,9.410266732,-0.035430185,0.004581489,0.014660766,306.88202,-6.320669,7.812728
3.29633E+12,4.324979,1.2866657,1.041042394,9.419660553,-0.038179077,-0.001527163,0.014966198,306.89517,-6.3161645,7.819193
3.29633E+12,4.329925,1.284339756,1.03639058,9.428964084,-0.03023783,0.012522738,0.016798794,306.90753,-6.314807,7.82004
3.29634E+12,4.335013,1.279151269,1.031534603,9.424873481,-0.033292156,0.003665192,0.018325957,306.92047,-6.3097463,7.828886
3.29634E+12,4.339941,1.272016472,1.026778055,9.410603787,-0.03176499,0.008552114,0.014660766,306.93323,-6.3085074,7.829579
3.29635E+12,4.344933,1.264789015,1.021959734,9.396148772,-0.039095376,0.004581489,0.015882496,306.9438,-6.3021626,7.8347354
3.29635E+12,4.34996,1.257510885,1.01710763,9.38159241,-0.029626964,0.00580322,0.014660766,306.9555,-6.30144,7.836695
3.29636E+12,4.354942,1.257318119,1.020654352,9.381206809,-0.027183503,0.006108652,0.017715093,306.96664,-6.2978015,7.8423924
3.29636E+12,4.359941,1.261997011,1.03001216,9.390564544,-0.028710667,0.006719518,0.019547688,306.97815,-6.295927,7.847343
3.29637E+12,4.364946,1.266681519,1.0393812,9.399933511,-0.03268129,0.005192355,0.021991149,306.98843,-6.293355,7.851502
3.29637E+12,4.37049,1.271870512,1.049759214,9.410311443,-0.032375857,0.007330383,0.015271631,307.0005,-6.29194,7.854028
3.29638E+12,4.374936,1.275996125,1.051167951,9.404877653,-0.030848695,0.004581489,0.014355334,307.00998,-6.288695,7.857301
3.29638E+12,4.37993,1.280598323,1.046565705,9.386468765,-0.03023783,0.006719518,0.01863139,307.01947,-6.2854776,7.858394
3.29639E+12,4.384946,1.286305438,1.039854101,9.375694,-0.039095376,0.006414085,0.012522738,307.0362,-6.2785316,7.85737
3.29639E+12,4.389938,1.293492767,1.030271037,9.375694,-0.036651913,0.007941248,0.02076942,307.04712,-6.274471,7.855778
3.2964E+12,4.394942,1.300697373,1.020664937,9.375694,-0.02687807,-0.000610865,0.014966198,307.0632,-6.270325,7.857649
3.2964E+12,4.399959,1.307920697,1.011033881,9.375694,-0.029321533,0.006719518,0.017715093,307.07364,-6.262996,7.855044
3.29641E+12,4.404955,1.309992447,1.011655159,9.379754391,-0.03359759,0.008246681,0.014660766,307.08536,-6.2642884,7.8613644
3.29641E+12,4.409939,1.305279693,1.025793421,9.389180095,-0.032986723,-0.003054326,0.008552114,307.0971,-6.2662635,7.8690047
3.29642E+12,4.414948,1.303334528,1.037850023,9.396625401,-0.031154128,0.002443461,0.016493361,307.09598,-6.257781,7.8624616
3.29642E+12,4.41995,1.305543982,1.046687859,9.401044169,-0.042760566,0.000610865,0.010690142,307.10104,-6.2467012,7.8606997
3.29643E+12,4.425064,1.307802907,1.055723583,9.405561878,-0.03145956,0.000610865,0.008552114,307.1041,-6.2448525,7.855947
3.29643E+12,4.429928,1.309951403,1.064317592,9.409858736,-0.036957346,0.004581489,0.008552114,307.10806,-6.235358,7.8506036
3.29644E+12,4.435015,1.312401358,1.0726024,9.414253511,-0.033292156,-0.004581489,0.010690142,307.11234,-6.2318664,7.849132
3.29644E+12,4.44051,1.31763069,1.0726024,9.417739805,-0.035430185,0.002748894,0.00702495,307.11755,-6.2256317,7.841819
3.29645E+12,4.444952,1.321857932,1.0726024,9.420558025,-0.038179077,0.006719518,0.011911872,307.1123,-6.2291374,7.83857
3.29645E+12,4.449956,1.326620003,1.0726024,9.423732805,-0.03573562,0.011301007,0.010690142,307.1097,-6.2337847,7.8328996
3.29646E+12,4.455046,1.331463916,1.0726024,9.426962148,-0.03573562,0.005497787,0.01038471,307.1058,-6.2366447,7.8294206
3.29646E+12,4.459937,1.336118451,1.0726024,9.430065236,-0.038179077,-0.001221731,0.008857546,307.1012,-6.236624,7.8203297
3.29647E+12,4.465194,1.340929731,1.073132592,9.431741161,-0.035124753,0.001221731,0.013133603,307.0951,-6.237947,7.8107805
3.29647E+12,4.469953,1.343103017,1.079652452,9.41435496,-0.029932396,0.007330383,0.014966198,307.09033,-6.239354,7.8022337
3.29648E+12,4.474899,1.345361701,1.086428503,9.396285586,-0.03848451,0.003665192,0.01282817,307.085,-6.237017,7.797936
3.29648E+12,4.479927,1.347657831,1.093316894,9.377916638,-0.03268129,0.00702495,0.020463986,307.07605,-6.2397265,7.7905154
3.29649E+12,4.484918,1.349937065,1.100154595,9.359682864,-0.03145956,0.013133603,0.016187929,307.07138,-6.2392855,7.783157
3.29649E+12,4.489943,1.354220112,1.095497332,9.366266781,-0.03634648,0.011911872,0.01740966,307.0632,-6.2382126,7.7775807
3.2965E+12,4.494928,1.358876344,1.088512983,9.377907361,-0.03940081,0.000610865,0.012522738,307.05832,-6.238387,7.773103
3.2965E+12,4.499956,1.363572741,1.081468389,9.389648352,-0.034208454,0.008552114,0.02076942,307.0522,-6.2453804,7.771269
3.29651E+12,4.504909,1.368199083,1.074528875,9.401214208,-0.03604105,0.004276057,0.011911872,307.05316,-6.2502046,7.775345
3.29651E+12,4.51028,1.354624579,1.068887695,9.408139395,-0.032986723,0.008246681,0.01282817,307.04858,-6.256982,7.7753596
3.29652E+12,4.51496,1.337222357,1.064537139,9.412489587,-0.03634648,0.005192355,0.013744468,307.04694,-6.26159,7.778251
3.29652E+12,4.519944,1.327889314,1.066312486,9.407427434,-0.035430185,0.015271631,0.02107485,307.0368,-6.2659063,7.7762604
3.29653E+12,4.524929,1.323009883,1.071191917,9.397668878,-0.042760566,0.006414085,0.01985312,307.02975,-6.2670746,7.78029
3.29653E+12,4.529927,1.325035764,1.086347857,9.408593385,-0.04184427,0.009468411,0.017104227,307.0212,-6.270364,7.775747
3.29654E+12,4.534979,1.329916425,1.105870501,9.428115927,-0.03604105,0.009773844,0.017104227,307.01276,-6.2728205,7.774645
3.29654E+12,4.539941,1.337887941,1.104197859,9.429799059,-0.027488936,0.015577064,0.014966198,307.00638,-6.2775264,7.770343
3.29655E+12,4.544935,1.347050991,1.095034809,9.425217439,-0.039095376,0.014660766,0.022296581,306.99765,-6.277645,7.768282
3.29655E+12,4.549944,1.34742101,1.08884721,9.426486851,-0.043676864,0.00702495,0.014049901,306.98657,-6.289112,7.76291
3.29656E+12,4.554945,1.342906155,1.084332355,9.4310018,-0.04184427,0.014660766,0.016493361,306.97028,-6.2980723,7.754299
3.29656E+12,4.559937,1.335569957,1.075700383,9.427971984,-0.03573562,0.008857546,0.018936822,306.95587,-6.305104,7.7534256
3.29657E+12,4.564952,1.325599508,1.063237296,9.418001587,-0.03176499,0.014966198,0.01740966,306.9416,-6.3118615,7.7471576
3.29657E+12,4.569947,1.315668822,1.050823912,9.408070953,-0.0290161,0.015882496,0.018936822,306.92883,-6.3147993,7.740848
3.29658E+12,4.57494,1.305742112,1.038415498,9.398144295,-0.032070424,0.007635816,0.021380283,306.91663,-6.3171015,7.735706
3.29658E+12,4.579937,1.299279767,1.046959266,9.401179868,-0.039095376,0.010690142,0.018936822,306.90823,-6.3256617,7.7379274
3.29659E+12,4.584955,1.294521709,1.065991546,9.410695685,-0.04184427,0.007330383,0.021685716,306.89835,-6.3339,7.7444134
3.29659E+12,4.589939,1.29596294,1.063320579,9.401625304,-0.03268129,0.010995574,0.01740966,306.89093,-6.3397894,7.745876
3.2966E+12,4.594979,1.300774251,1.048886646,9.38238016,-0.043066,0.009468411,0.017715093,306.88184,-6.3389063,7.7499337
3.2966E+12,4.599976,1.29630584,1.046941948,9.378764012,-0.038179077,0.015882496,0.013744468,306.872,-6.3482656,7.7446733
3.29661E+12,4.605012,1.286780012,1.051704812,9.383526976,-0.036957346,0.015577064,0.016798794,306.86063,-6.35314,7.742129
3.29661E+12,4.609971,1.280387285,1.06506778,9.382366194,-0.031154128,0.008246681,0.014966198,306.85272,-6.356222,7.7401505
3.29662E+12,4.615003,1.275694982,1.083837189,9.377673744,-0.035124753,0.014049901,0.013133603,306.84375,-6.3566566,7.734788
3.29662E+12,4.619881,1.287858495,1.08232722,9.380408489,-0.03970624,0.007941248,0.014966198,306.83606,-6.359438,7.733447
3.29663E+12,4.624961,1.313937417,1.064941302,9.389101629,-0.03268129,0.005497787,0.011911872,306.8302,-6.364528,7.7293744
3.29663E+12,4.629892,1.327142551,1.054793347,9.398209368,-0.023518313,0.009468411,0.006719518,306.8226,-6.375973,7.7253046
3.29664E+12,4.634988,1.314074864,1.059149235,9.409099089,-0.030848695,0.003665192,0.007635816,306.81476,-6.3842516,7.724881
3.29664E+12,4.6399,1.301479008,1.063347847,9.419595617,-0.0290161,-0.000610865,0.01038471,306.80438,-6.393063,7.7275295
3.29665E+12,4.644974,1.288467735,1.06768493,9.430438326,-0.0290161,0.004276057,0.011301007,306.79437,-6.3990393,7.7291327
3.29665E+12,4.64999,1.275605191,1.071972437,9.441157093,-0.027183503,0.004276057,0.009162978,306.7874,-6.4043393,7.7334013
3.29666E+12,4.654984,1.275751664,1.060384066,9.430513645,-0.027488936,0.006719518,0.011301007,306.77887,-6.4086204,7.7356906
3.29666E+12,4.65997,1.27813675,1.046073374,9.416202928,-0.030543262,0.008857546,0.006719518,306.773,-6.4127717,7.737718
3.29667E+12,4.664994,1.280540014,1.031653616,9.401783145,-0.03359759,0.002443461,0.007941248,306.76736,-6.4195614,7.73766
3.29667E+12,4.669905,1.282889224,1.017558187,9.387687691,-0.03634648,0.00702495,0.003054326,306.7645,-6.425759,7.733596
3.29668E+12,4.674973,1.295350349,1.027199807,9.373212903,-0.03176499,0.008857546,0.010079277,306.75873,-6.431587,7.7318597
3.29668E+12,4.679894,1.309391791,1.0412412,9.359171754,-0.038179077,0.003054326,0.012217305,306.75595,-6.433765,7.730764
3.29669E+12,4.684983,1.308038322,1.051840555,9.372478028,-0.03634648,0.001221731,0.00580322,306.7506,-6.434954,7.7302923
3.29669E+12,4.689874,1.303361792,1.061193616,9.391184052,-0.030848695,0.012217305,0.01282817,306.74072,-6.4347343,7.7283444
3.2967E+12,4.695662,1.300194135,1.058522271,9.401602899,-0.035430185,0.007330383,0.011911872,306.73984,-6.4352584,7.736311
3.2967E+12,4.699923,1.298207729,1.054549458,9.407562035,-0.03481932,0.01160644,0.008552114,306.73703,-6.4385,7.738582
3.29671E+12,4.704975,1.295852572,1.049839144,9.414627409,-0.03359759,0.006414085,0.008552114,306.73517,-6.4419236,7.74354
3.29671E+12,4.709868,1.293571538,1.045277076,9.421470415,-0.028710667,0.009162978,0.009773844,306.73358,-6.446522,7.7448764
3.29672E+12,4.714983,1.302788549,1.040565449,9.413658589,-0.03359759,0.002748894,0.003054326,306.73477,-6.4488716,7.7499194
3.29672E+12,4.719945,1.316430677,1.036018026,9.400016651,-0.021380283,0.010995574,0.01038471,306.73102,-6.456703,7.7504086
3.29673E+12,4.724919,1.320098508,1.041799578,9.396348924,-0.022296581,0.003970624,0.008552114,306.7199,-6.4679713,7.758246
3.29673E+12,4.730097,1.317586671,1.054358785,9.398860812,-0.033292156,0.010079277,0.007941248,306.706,-6.4789333,7.7601714
3.29674E+12,4.735056,1.315181072,1.066386809,9.401266463,-0.028099801,0.006108652,0.010079277,306.68762,-6.491073,7.7643886
3.29674E+12,4.740001,1.312782263,1.078380877,9.403665321,-0.029932396,0.003359759,0.010995574,306.66995,-6.4977922,7.7664905
3.29675E+12,4.744941,1.315314381,1.078887419,9.40113315,-0.024740042,0.014660766,0.015882496,306.6498,-6.50445,7.761675
3.29675E+12,4.749957,1.320208149,1.073993651,9.39623928,-0.039095376,0.013133603,0.008857546,306.63376,-6.5051847,7.761052
3.29676E+12,4.754904,1.325034599,1.069167201,9.391412729,-0.03848451,0.012522738,0.013133603,306.6183,-6.516204,7.7599397
3.29676E+12,4.759891,1.329900074,1.064301726,9.386547153,-0.03176499,0.010690142,0.016798794,306.60535,-6.5248766,7.759438
3.29677E+12,4.76552,1.339355141,1.042578204,9.389360556,-0.038179077,0.012522738,0.02107485,306.59122,-6.529503,7.758303
3.29677E+12,4.769905,1.347655224,1.021827955,9.393510684,-0.038789943,0.013133603,0.022602014,306.57727,-6.537294,7.758116
3.29678E+12,4.774903,1.346932192,1.021936716,9.391450321,-0.039095376,0.005497787,0.013133603,306.56433,-6.5415044,7.761464
3.29678E+12,4.779927,1.342170802,1.031459495,9.386688832,-0.036957346,-0.000305433,0.017104227,306.54733,-6.5454087,7.7646484
3.29679E+12,4.784998,1.337368554,1.024141761,9.388655517,-0.032375857,0.004886922,0.018325957,306.53113,-6.5457983,7.768648
3.29679E+12,4.790018,1.332616128,1.009884484,9.393408042,-0.03359759,0.010690142,0.017715093,306.5147,-6.5449066,7.7740674
3.2968E+12,4.794932,1.3311762,1.014981926,9.401126107,-0.03634648,0.010995574,0.01740966,306.4826,-6.5614104,7.7837005
3.2968E+12,4.799892,1.3311762,1.02874834,9.410303652,-0.036957346,0.008857546,0.014049901,306.4521,-6.5775094,7.7921124
3.29681E+12,4.804856,1.3311762,1.042525856,9.419488599,-0.03145956,0.010995574,0.008246681,306.42554,-6.5863037,7.795133
3.29681E+12,4.809852,1.3311762,1.056392187,9.428732755,-0.034513887,0.014660766,0.011911872,306.3978,-6.5918026,7.798513
3.29682E+12,4.814886,1.329874011,1.061723411,9.426644057,-0.028710667,0.013439035,0.01863139,306.3722,-6.60051,7.8025413
3.29682E+12,4.819858,1.327425266,1.059274666,9.414400331,-0.036651913,0.006414085,0.013439035,306.34955,-6.604372,7.8069334
3.29683E+12,4.824855,1.324964208,1.056813608,9.402095042,-0.032375857,0.010690142,0.016187929,306.32602,-6.615915,7.806814
3.29683E+12,4.829852,1.32250315,1.05435255,9.389789752,-0.032375857,0.009468411,0.011301007,306.30707,-6.6240644,7.8098235
3.29684E+12,4.834857,1.323092316,1.050462952,9.386763948,-0.03848451,0.007635816,0.013744468,306.28555,-6.6308527,7.812152
3.29684E+12,4.839857,1.325447074,1.045753411,9.389118755,-0.02565634,0.009162978,0.009468411,306.2677,-6.643046,7.813496
3.29685E+12,4.84484,1.327793826,1.041059884,9.391465555,-0.032070424,0.01038471,0.018325957,306.24576,-6.6467614,7.8158517
3.29685E+12,4.850015,1.330231,1.036185509,9.39390278,-0.029626964,0.004276057,0.014966198,306.22913,-6.656862,7.8193088
3.29686E+12,4.854973,1.326991638,1.038479677,9.393453117,-0.017104227,0.009162978,0.01160644,306.21115,-6.669221,7.8231034
3.29686E+12,4.859976,1.319897309,1.04557403,9.391088291,-0.032070424,0.008552114,0.01282817,306.19357,-6.673976,7.8300962
3.29687E+12,4.86494,1.312858283,1.05261308,9.3887419,-0.026572637,-0.000305433,0.006719518,306.1866,-6.6782956,7.835348
3.29687E+12,4.869943,1.305763955,1.059707434,9.386377075,-0.024129177,0.008552114,0.010995574,306.1759,-6.6770034,7.8360844
3.29688E+12,4.874938,1.299967351,1.070460946,9.3877495,-0.022296581,0.010995574,0.013439035,306.16806,-6.677326,7.8407645
3.29688E+12,4.879928,1.295309175,1.084435475,9.392407774,-0.03145956,0.003054326,0.01282817,306.1601,-6.675076,7.845873
3.29689E+12,4.884906,1.292869,1.093977234,9.392626758,-0.039095376,0.003970624,0.018020526,306.15646,-6.6746864,7.8472314
3.29689E+12,4.889945,1.292869,1.09871192,9.387892056,-0.02565634,0.008857546,0.016493361,306.15503,-6.6779485,7.8493657
3.2969E+12,4.894933,1.292869,1.103398685,9.383205274,-0.033292156,0.013133603,0.019547688,306.1525,-6.6752048,7.8503513
3.2969E+12,4.899957,1.292869,1.108119277,9.378484666,-0.029321533,0.013133603,0.018020526,306.15173,-6.679692,7.8509274
