time,seconds_elapsed,z,y,x
1657787293044104200,0.065104248046875,9.801773071289062,-0.25974318385124207,0.16782477498054504
1657787293054104000,0.07510400390625,9.80281925201416,-0.23803174495697021,0.13584674894809723
1657787293064103200,0.085103271484375,9.804045677185059,-0.1978977471590042,0.10913532227277756
1657787293074102500,0.0951025390625,9.80510139465332,-0.1555408239364624,0.07862592488527298
1657787293084102100,0.10510205078125,9.805971145629883,-0.10947093367576599,0.036563899368047714
1657787293094102300,0.115102294921875,9.806443214416504,-0.061508674174547195,-0.01665671169757843
1657787293104102100,0.12510205078125,9.8063325881958,-0.016991959884762764,-0.07704345881938934
1657787293114101800,0.135101806640625,9.805765151977539,0.01616722345352173,-0.13071604073047638
1657787293124101600,0.1451015625,9.80520248413086,0.03438255190849304,-0.16492776572704315
1657787293134101500,0.1551015625,9.804953575134277,0.03804873675107956,-0.17838796973228455
1657787293144101600,0.1651015625,9.805131912231445,0.03028743527829647,-0.16986478865146637
1657787293154101500,0.1751015625,9.80550765991211,0.019798902794718742,-0.14836865663528442
1657787293164101400,0.185101318359375,9.805904388427734,0.01220715045928955,-0.12033380568027496
1657787293174101500,0.1951015625,9.806232452392578,0.010863836854696274,-0.08983757346868515
1657787293183484000,0.20448388671875,9.806414604187012,0.014745905064046383,-0.066342294216156
1657787293192339200,0.213339111328125,9.806496620178223,0.022940831258893013,-0.04970172420144081
1657787293208364300,0.2293642578125,9.806496620178223,0.022940831258893013,-0.04970172420144081
1657787293218364400,0.239364501953125,9.806522369384766,0.03277477249503136,-0.03775666281580925
1657787293228365300,0.249365234375,9.806510925292969,0.043657220900058746,-0.028812799602746964
1657787293235352800,0.256352783203125,9.806468963623047,0.055549588054418564,-0.021708248183131218
1657787293240678000,0.261677978515625,9.806385040283203,0.07015644758939743,-0.016316518187522888
1657787293248178000,0.269177978515625,9.806285858154297,0.08375096321105957,-0.011874859221279621
1657787293256178000,0.277177978515625,9.806144714355469,0.0986468568444252,-0.013127936981618404
1657787293264511200,0.28551123046875,9.805970191955566,0.1133987307548523,-0.021985923871397972
1657787293273082600,0.29408251953125,9.805763244628906,0.12754179537296295,-0.03367982059717178
1657787293281832700,0.302832763671875,9.805516242980957,0.14216402173042297,-0.04502391442656517
1657787293290721500,0.311721435546875,9.805180549621582,0.1595238447189331,-0.05808844417333603
1657787293299721700,0.3207216796875,9.804679870605469,0.18142449855804443,-0.07570041716098785
1657787293308812800,0.329812744140625,9.803972244262695,0.2067500650882721,-0.0988643541932106
1657787293317979400,0.3389794921875,9.803038597106934,0.23400598764419556,-0.12673419713974
1657787293327210200,0.348210205078125,9.801945686340332,0.2618754506111145,-0.15388141572475433
1657787293336496000,0.35749609375,9.8008451461792,0.2887146472930908,-0.17453525960445404
1657787293345829400,0.366829345703125,9.799853324890137,0.3142649531364441,-0.18573406338691711
1657787293355204400,0.376204345703125,9.799182891845703,0.3362483084201813,-0.18259361386299133
1657787293364616200,0.3856162109375,9.79881477355957,0.35557928681373596,-0.16482847929000854
1657787293374060800,0.395060791015625,9.798624992370605,0.37268853187561035,-0.13581125438213348
1657787293383533000,0.404532958984375,9.798439025878906,0.3881136178970337,-0.1017092689871788
1657787293393033200,0.414033203125,9.79813003540039,0.40267205238342285,-0.07002128660678864
1657787293402557000,0.423556884765625,9.797627449035645,0.418436735868454,-0.042379479855298996
1657787293412102400,0.433102294921875,9.796828269958496,0.4382614195346832,-0.021501272916793823
1657787293421318700,0.442318603515625,9.795722961425781,0.4627370238304138,-0.008216825313866138
1657787293430234400,0.451234375,9.794295310974121,0.49209100008010864,-0.002782196272164583
1657787293446260200,0.46726025390625,9.792713165283203,0.5226266384124756,0.0022030812688171864
1657787293456260400,0.47726025390625,9.790843963623047,0.5565654039382935,0.0010453626746311784
1657787293466261200,0.48726123046875,9.788769721984863,0.5919209122657776,0.0012386018643155694
1657787293476261400,0.497261474609375,9.786689758300781,0.6253401637077332,0.006464026868343353
1657787293486261200,0.50726123046875,9.784943580627441,0.6519230604171753,0.016352273523807526
1657787293496261600,0.51726171875,9.783576011657715,0.6717318296432495,0.028311409056186676
1657787293506261800,0.52726171875,9.78257942199707,0.6853794455528259,0.04215822368860245
1657787293516262000,0.537261962890625,9.781856536865234,0.6942648887634277,0.060577601194381714
1657787293526261800,0.54726171875,9.781603813171387,0.6956992745399475,0.08136409521102905
1657787293536262000,0.557261962890625,9.781923294067383,0.6891733407974243,0.09692230075597763
1657787293546262000,0.567261962890625,9.78281307220459,0.6751037836074829,0.10575811564922333
1657787293556262000,0.577261962890625,9.784153938293457,0.6547438502311707,0.10966853052377701
1657787293566262000,0.587261962890625,9.786002159118652,0.6275050640106201,0.10381786525249481
1657787293576261000,0.59726123046875,9.78842544555664,0.5927287340164185,0.07601345330476761
1657787293586261200,0.60726123046875,9.791166305541992,0.5500717163085938,0.02925809845328331
1657787293595973600,0.6169736328125,9.793749809265137,0.5024704337120056,-0.019227154552936554
1657787293605172000,0.626171875,9.795899391174316,0.45421379804611206,-0.06653892248868942
1657787293614547000,0.635546875,9.797600746154785,0.4055240750312805,-0.11388397216796875
1657787293623958800,0.644958740234375,9.798897743225098,0.3562215566635132,-0.1584254801273346
1657787293633403100,0.654403076171875,9.800138473510742,0.3026552200317383,-0.18992315232753754
1657787293642559700,0.663559814453125,9.801410675048828,0.2425088882446289,-0.20959748327732086
1657787293651358500,0.6723583984375,9.80262565612793,0.17596514523029327,-0.21899209916591644
1657787293660406000,0.681406005859375,9.803387641906738,0.10937327146530151,-0.22807617485523224
1657787293669497000,0.6904970703125,9.80389404296875,0.04203934594988823,-0.22863270342350006
1657787293678627300,0.69962744140625,9.80424976348877,-0.018701879307627678,-0.21614521741867065
1657787293687794200,0.708794189453125,9.804621696472168,-0.06438612937927246,-0.18875578045845032
1657787293696994000,0.717994140625,9.805169105529785,-0.09072918444871902,-0.14424683153629303
1657787293706225000,0.727224853515625,9.805867195129395,-0.09455792605876923,-0.08000841736793518
1657787293715484200,0.736484130859375,9.806387901306152,-0.07087546586990356,0.01129186525940895
1657787293724770000,0.74577001953125,9.805817604064941,-0.022884676232933998,0.12575019896030426
1657787293734080300,0.755080322265625,9.80350112915039,0.04229811578989029,0.24489223957061768
1657787293743413800,0.764413818359375,9.799422264099121,0.1235506609082222,0.35558977723121643
1657787293752747000,0.7737470703125,9.794745445251465,0.21030671894550323,0.43487387895584106
1657787293762080300,0.783080322265625,9.791075706481934,0.29765427112579346,0.4654218852519989
1657787293771413800,0.792413818359375,9.788576126098633,0.38619816303253174,0.4527779817581177
1657787293780746800,0.801746826171875,9.786231994628906,0.48228803277015686,0.40919920802116394
1657787293790080000,0.811080078125,9.783563613891602,0.5788335800170898,0.342369943857193
1657787293799345700,0.820345703125,9.779420852661133,0.6812680959701538,0.2630225121974945
1657787293808345000,0.829344970703125,9.773841857910156,0.7840641140937805,0.16627544164657593
1657787293817345000,0.838344970703125,9.766368865966797,0.8853283524513245,0.06801906228065491
1657787293826345200,0.84734521484375,9.757716178894043,0.9782172441482544,-0.02140614204108715
1657787293835345200,0.85634521484375,9.74925708770752,1.0573217868804932,-0.06667155772447586
1657787293844144400,0.865144287109375,9.741545677185059,1.1268503665924072,-0.05367251858115196
1657787293852677000,0.873677001953125,9.736601829528809,1.1699241399765015,0.01565919630229473
1657787293861343700,0.88234375,9.736601829528809,1.1699241399765015,0.01565919630229473
1657787293870144800,0.891144775390625,9.736795425415039,1.1629223823547363,0.11315803229808807
1657787293879212300,0.90021240234375,9.740086555480957,1.12322998046875,0.19864808022975922
1657787293888212200,0.909212158203125,9.745010375976562,1.0634286403656006,0.27256739139556885
1657787293897212200,0.918212158203125,9.74992847442627,0.9938198328018188,0.3487241268157959
1657787293897402600,0.918402587890625,9.755864143371582,0.8601343035697937,0.5036633610725403
1657787293906870000,0.9278701171875,9.757063865661621,0.7993358373641968,0.5754604339599609
1657787293916203500,0.93720361328125,9.757624626159668,0.7398856282234192,0.6416491270065308
1657787293925536800,0.946536865234375,9.757555961608887,0.6829320192337036,0.7029184699058533
1657787293934870000,0.9558701171875,9.75690746307373,0.6356292963027954,0.7543995380401611
1657787293944136000,0.965135986328125,9.755599975585938,0.6020090579986572,0.7976493239402771
1657787293953135000,0.974135009765625,9.753678321838379,0.5800269842147827,0.8364889025688171
1657787293962135300,0.98313525390625,9.751501083374023,0.5602431893348694,0.8744931221008301
1657787293971135200,0.99213525390625,9.749002456665039,0.5458635687828064,0.9106969833374023
1657787293980135200,1.00113525390625,9.756574630737305,0.4856950640678406,0.8624042868614197
1657787293989135000,1.010135009765625,9.768168449401855,0.4032266139984131,0.7685519456863403
1657787293998135300,1.01913525390625,9.781026840209961,0.2990555167198181,0.6422392129898071
1657787294007134700,1.028134765625,9.79080581665039,0.18777213990688324,0.5246457457542419
1657787294016135000,1.037135009765625,9.794618606567383,0.0899614468216896,0.47723138332366943
1657787294024934000,1.045933837890625,9.794408798217773,0.020043402910232544,0.4894227385520935
1657787294033467000,1.054466796875,9.791975975036621,-0.015994053333997726,0.5360345840454102
1657787294042133500,1.063133544921875,9.789549827575684,-0.04629243537783623,0.577038586139679
1657787294050867700,1.07186767578125,9.786137580871582,-0.04268907755613327,0.6325172185897827
1657787294059868400,1.080868408203125,9.781670570373535,-0.0019426585640758276,0.6994998455047607
1657787294068868400,1.089868408203125,9.772087097167969,0.06769783049821854,0.8198280334472656
1657787294077868300,1.098868408203125,9.753979682922363,0.1539362519979477,1.0032836198806763
1657787294086868200,1.1078681640625,9.726371765136719,0.2536728084087372,1.2262705564498901
1657787294096069000,1.117069091796875,9.686745643615723,0.34674185514450073,1.4889980554580688
1657787294105536800,1.126536865234375,9.631484031677246,0.4319218695163727,1.793976068496704
1657787294114870000,1.1358701171875,9.558326721191406,0.5069783926010132,2.1334826946258545
1657787294124203300,1.145203369140625,9.464035034179688,0.5550798773765564,2.5088448524475098
1657787294133536800,1.154536865234375,9.343231201171875,0.5929639935493469,2.9193835258483887
1657787294142870000,1.1638701171875,9.191445350646973,0.6355229020118713,3.3591408729553223
1657787294152203300,1.173203369140625,9.009600639343262,0.6991641521453857,3.8090200424194336
1657787294161536800,1.182536865234375,8.795133590698242,0.7821893692016602,4.2666335105896
1657787294170869800,1.191869873046875,8.548348426818848,0.8741924166679382,4.7256598472595215
1657787294180203000,1.201203125,8.282218933105469,0.9601351022720337,5.162688732147217
1657787294189536300,1.210536376953125,8.011170387268066,1.0307761430740356,5.561379909515381
1657787294198869500,1.219869384765625,7.756103038787842,1.0874252319335938,5.901753902435303
1657787294208203000,1.229203125,7.5320563316345215,1.1311657428741455,6.1772847175598145
1657787294217403000,1.23840283203125,7.330716133117676,1.170530080795288,6.407869815826416
1657787294226602800,1.247602783203125,7.144057273864746,1.2147034406661987,6.607364177703857
1657787294235936000,1.25693603515625,6.953469753265381,1.2584002017974854,6.7997050285339355
1657787294245269000,1.26626904296875,6.765579700469971,1.3103402853012085,6.977117538452148
1657787294254602200,1.275602294921875,6.573744297027588,1.3708032369613647,7.146821022033691
1657787294263935700,1.284935791015625,6.3767194747924805,1.434675693511963,7.310912132263184
1657787294273269000,1.29426904296875,6.176158905029297,1.4906150102615356,7.4701666831970215
1657787294282602800,1.303602783203125,5.977743148803711,1.5357269048690796,7.6209211349487305
1657787294291936000,1.31293603515625,5.789732456207275,1.5716545581817627,7.757518768310547
1657787294301470200,1.32247021484375,5.619195938110352,1.601454734802246,7.875924587249756
1657787294311271000,1.33227099609375,5.46645450592041,1.6288561820983887,7.977149963378906
1657787294320937700,1.341937744140625,5.320746421813965,1.66107976436615,8.068498611450195
1657787294330604300,1.351604248046875,5.177605152130127,1.7042475938796997,8.15218734741211
1657787294340271400,1.361271240234375,5.028651237487793,1.7586338520050049,8.233473777770996
1657787294349938000,1.37093798828125,4.8711371421813965,1.819804310798645,8.314473152160645
1657787294359604700,1.380604736328125,4.700050354003906,1.8861346244812012,8.397750854492188
1657787294369271300,1.390271240234375,4.514358997344971,1.952747106552124,8.483951568603516
1657787294378670300,1.39967041015625,4.314857006072998,2.0167675018310547,8.5723295211792
1657787294387803000,1.408802978515625,4.102901458740234,2.072714328765869,8.662574768066406
1657787294403829000,1.4248291015625,4.102901458740234,2.072714328765869,8.662574768066406
1657787294413830000,1.434829833984375,3.8870444297790527,2.11495304107666,8.75146198272705
1657787294423830000,1.444830078125,3.6741888523101807,2.138674259185791,8.837228775024414
1657787294429816800,1.45081689453125,3.469571113586426,2.1345551013946533,8.92052936553955
1657787294434474500,1.455474609375,3.271378517150879,2.098069429397583,9.003679275512695
1657787294450501600,1.471501708984375,3.071909189224243,2.059133768081665,9.08259105682373
1657787294460501500,1.48150146484375,2.8789913654327393,1.9834529161453247,9.162285804748535
1657787294470506500,1.491506591796875,2.7017877101898193,1.8642674684524536,9.240938186645508
1657787294480506000,1.501506103515625,2.5428946018218994,1.7066136598587036,9.316182136535645
1657787294490505700,1.511505615234375,2.40055775642395,1.5108388662338257,9.38748550415039
1657787294500505900,1.521505859375,2.272026777267456,1.2784937620162964,9.453752517700195
1657787294510505700,1.531505615234375,2.1587107181549072,1.0075181722640991,9.51288890838623
1657787294520505600,1.541505615234375,2.0598230361938477,0.7059694528579712,9.561851501464844
1657787294530505500,1.55150537109375,1.9729753732681274,0.3768608570098877,9.598709106445312
1657787294540505600,1.561505615234375,1.8985300064086914,0.019377777352929115,9.621085166931152
1657787294550505500,1.57150537109375,1.83296537399292,-0.3585740923881531,9.627141952514648
1657787294560505300,1.58150537109375,1.7709733247756958,-0.7547752857208252,9.615819931030273
1657787294570505200,1.591505126953125,1.7070196866989136,-1.1724854707717896,9.585479736328125
1657787294580505300,1.60150537109375,1.634987235069275,-1.6061493158340454,9.535043716430664
1657787294590504400,1.61150439453125,1.549263596534729,-2.0548863410949707,9.462944030761719
1657787294599931100,1.62093115234375,1.4499965906143188,-2.519758939743042,9.36581039428711
1657787294608862700,1.62986279296875,1.3337576389312744,-2.992964267730713,9.24301528930664
1657787294624889600,1.6458896484375,1.3337576389312744,-2.992964267730713,9.24301528930664
1657787294634876700,1.655876708984375,1.1957892179489136,-3.4699747562408447,9.093929290771484
1657787294644888600,1.665888671875,1.032431721687317,-3.9479384422302246,8.917284965515137
1657787294650881500,1.671881591796875,0.8413932919502258,-4.420635223388672,8.713221549987793
1657787294655543600,1.67654345703125,0.6205258369445801,-4.885995388031006,8.480097770690918
1657787294671547600,1.692547607421875,0.38536885380744934,-5.332855701446533,8.220834732055664
1657787294681570600,1.702570556640625,0.1298418939113617,-5.772233963012695,7.926823139190674
1657787294691569700,1.712569580078125,-0.1346481293439865,-6.203794956207275,7.593740940093994
1657787294701569000,1.722569091796875,-0.39963895082473755,-6.62074089050293,7.223291873931885
1657787294711569000,1.73256884765625,-0.6529302597045898,-7.013569355010986,6.823023796081543
1657787294721568800,1.74256884765625,-0.8832669258117676,-7.372466564178467,6.405989646911621
1657787294731569000,1.75256884765625,-1.0760599374771118,-7.693721771240234,5.984882354736328
1657787294741568500,1.762568603515625,-1.2124909162521362,-7.973404407501221,5.578970432281494
1657787294751568600,1.772568603515625,-1.2970106601715088,-8.211874961853027,5.201237201690674
1657787294761567000,1.78256689453125,-1.3341548442840576,-8.40959644317627,4.865046977996826
1657787294771567000,1.792567138671875,-1.3278043270111084,-8.563629150390625,4.590327262878418
1657787294781567000,1.80256689453125,-1.2912042140960693,-8.678815841674805,4.3796281814575195
1657787294791566800,1.81256689453125,-1.2298657894134521,-8.761063575744629,4.231011390686035
1657787294801566700,1.822566650390625,-1.1523319482803345,-8.818198204040527,4.133011817932129
1657787294811566800,1.83256689453125,-1.0665754079818726,-8.861491203308105,4.0627923011779785
1657787294820993300,1.8419931640625,-0.9849466681480408,-8.899582862854004,3.999677896499634
1657787294829924900,1.8509248046875,-0.9159471988677979,-8.938115119934082,3.929529905319214
1657787294845952000,1.866951904296875,-0.9159471988677979,-8.938115119934082,3.929529905319214
1657787294855952000,1.876951904296875,-0.8633435964584351,-8.978951454162598,3.8474583625793457
1657787294865951000,1.886950927734375,-0.8241460919380188,-9.021880149841309,3.7545127868652344
1657787294871937300,1.892937255859375,-0.804592490196228,-9.0635347366333,3.657191514968872
1657787294876595000,1.897594970703125,-0.7923426628112793,-9.102693557739258,3.5613341331481934
1657787294892610000,1.913610107421875,-0.7815092206001282,-9.140772819519043,3.4648940563201904
1657787294902622000,1.9236220703125,-0.7768130898475647,-9.178223609924316,3.3655388355255127
1657787294912621000,1.93362109375,-0.7792332768440247,-9.214982032775879,3.2629475593566895
1657787294922620700,1.94362060546875,-0.7809737324714661,-9.249892234802246,3.1622424125671387
1657787294932620500,1.95362060546875,-0.7785090804100037,-9.282466888427734,3.0659031867980957
1657787294942620700,1.96362060546875,-0.774407684803009,-9.311469078063965,2.9777445793151855
1657787294952620300,1.973620361328125,-0.7721912264823914,-9.3366060256958,2.8985092639923096
1657787294962620200,1.9836201171875,-0.7719722390174866,-9.357196807861328,2.8314499855041504
1657787294972620000,1.9936201171875,-0.7696557641029358,-9.37419319152832,2.7752795219421387
1657787294982620200,2.0036201171875,-0.76066654920578,-9.388602256774902,2.728652000427246
1657787294992620000,2.0136201171875,-0.7485272288322449,-9.401721000671387,2.6865334510803223
1657787295002623000,2.023623046875,-0.7354418635368347,-9.413352012634277,2.6491236686706543
1657787295012622800,2.033622802734375,-0.7247673273086548,-9.42263126373291,2.618931770324707
1657787295022623000,2.043623046875,-0.7155205607414246,-9.430046081542969,2.594679355621338
1657787295032622800,2.053622802734375,-0.7093587517738342,-9.436805725097656,2.571707010269165
1657787295042049500,2.063049560546875,-0.7118690609931946,-9.443164825439453,2.5475480556488037
1657787295050980900,2.07198095703125,-0.7216116189956665,-9.448651313781738,2.5243682861328125
1657787295067007000,2.088007080078125,-0.7216116189956665,-9.448651313781738,2.5243682861328125
1657787295077008000,2.0980078125,-0.735385000705719,-9.453171730041504,2.5033276081085205
1657787295087007000,2.108007080078125,-0.7466850876808167,-9.456721305847168,2.486528158187866
1657787295092995000,2.1139951171875,-0.7505510449409485,-9.461065292358398,2.4688024520874023
1657787295097652700,2.11865283203125,-0.7405533790588379,-9.464816093444824,2.457425832748413
1657787295113679600,2.1346796875,-0.7405533790588379,-9.464816093444824,2.457425832748413
1657787295123678700,2.1446787109375,-0.7141155004501343,-9.468459129333496,2.4511780738830566
1657787295133678600,2.1546787109375,-0.6717961430549622,-9.470962524414062,2.4534764289855957
1657787295143678700,2.1646787109375,-0.6219984292984009,-9.474504470825195,2.4529244899749756
1657787295153678800,2.174678955078125,-0.5683708190917969,-9.479111671447754,2.4481589794158936
1657787295163679200,2.18467919921875,-0.5163050293922424,-9.484051704406738,2.440535068511963
1657787295173679000,2.19467919921875,-0.47014400362968445,-9.489062309265137,2.430368661880493
1657787295183679200,2.20467919921875,-0.43237149715423584,-9.494165420532227,2.4173731803894043
1657787295193679000,2.21467919921875,-0.40377771854400635,-9.499690055847168,2.4005699157714844
1657787295203679200,2.22467919921875,-0.3805186152458191,-9.502946853637695,2.3915302753448486
1657787295213679400,2.234679443359375,-0.36219674348831177,-9.503753662109375,2.3911099433898926
1657787295223679500,2.244679443359375,-0.34514763951301575,-9.502115249633789,2.400146961212158
1657787295233679600,2.2546796875,-0.3255186378955841,-9.497684478759766,2.4203433990478516
1657787295243679700,2.2646796875,-0.300594687461853,-9.490514755249023,2.4514970779418945
1657787295253679600,2.2746796875,-0.2672658860683441,-9.481019973754883,2.4917705059051514
1657787295263679200,2.28467919921875,-0.22033748030662537,-9.468524932861328,2.5433177947998047
1657787295273679400,2.294679443359375,-0.15603351593017578,-9.450055122375488,2.6157541275024414
1657787295283679200,2.30467919921875,-0.08209241181612015,-9.422357559204102,2.717071771621704
1657787295293679400,2.314679443359375,-0.007651537656784058,-9.382343292236328,2.8533520698547363
1657787295303233500,2.324233642578125,0.055210795253515244,-9.326451301574707,3.0306074619293213
1657787295312390000,2.333389892578125,0.0967959463596344,-9.255899429321289,3.2386653423309326
1657787295328405000,2.349405029296875,0.0967959463596344,-9.255899429321289,3.2386653423309326
1657787295338417000,2.3594169921875,0.11559373885393143,-9.171820640563965,3.4691038131713867
1657787295348416000,2.369416015625,0.11680091917514801,-9.074222564697266,3.71686053276062
1657787295358415400,2.379415283203125,0.10617255419492722,-8.96311092376709,3.9775922298431396
1657787295368415200,2.389415283203125,0.09251827001571655,-8.836699485778809,4.251396179199219
1657787295378415000,2.3994150390625,0.08383285999298096,-8.691375732421875,4.54125452041626
1657787295388415000,2.4094150390625,0.0776803269982338,-8.525320053100586,4.845934867858887
1657787295398414800,2.419414794921875,0.07219839096069336,-8.33641529083252,5.1642303466796875
1657787295408414700,2.429414794921875,0.06720306724309921,-8.123164176940918,5.493584632873535
1657787295418414600,2.43941455078125,0.06383183598518372,-7.88753080368042,5.826910972595215
1657787295428414500,2.44941455078125,0.06642857939004898,-7.629568099975586,6.160784721374512
1657787295438414300,2.459414306640625,0.0816156268119812,-7.348301887512207,6.493529319763184
1657787295448414500,2.46941455078125,0.11107084900140762,-7.0435285568237305,6.822489261627197
1657787295458414300,2.479414306640625,0.15545739233493805,-6.7161102294921875,7.144204139709473
1657787295468414500,2.48941455078125,0.2107534557580948,-6.36693811416626,7.455719947814941
1657787295477841200,2.498841064453125,0.27108490467071533,-5.99647331237793,7.754917144775391
1657787295486772500,2.5077724609375,0.33160045742988586,-5.6068034172058105,8.038902282714844
1657787295502799600,2.523799560546875,0.33160045742988586,-5.6068034172058105,8.038902282714844
1657787295512798700,2.533798828125,0.39166882634162903,-5.198100566864014,8.306413650512695
1657787295522798600,2.543798583984375,0.45080024003982544,-4.771762847900391,8.555527687072754
1657787295528785700,2.54978564453125,0.5112345218658447,-4.330809116363525,8.783659934997559
1657787295533443600,2.554443603515625,0.5752198100090027,-3.880160331726074,8.987968444824219
1657787295549470700,2.570470703125,0.6346341371536255,-3.4194955825805664,9.169203758239746
1657787295559470600,2.580470703125,0.6935001611709595,-2.9556376934051514,9.324872016906738
1657787295569469700,2.5904697265625,0.7507079243659973,-2.4946579933166504,9.454265594482422
1657787295579469600,2.600469482421875,0.8073118329048157,-2.042900562286377,9.557456016540527
1657787295589469700,2.6104697265625,0.8656728267669678,-1.6045912504196167,9.63565731048584
1657787295599469600,2.620469482421875,0.9203899502754211,-1.1783034801483154,9.691991806030273
1657787295609469400,2.630469482421875,0.9665700793266296,-0.7674810290336609,9.728663444519043
1657787295619469300,2.64046923828125,1.003610610961914,-0.37746116518974304,9.747843742370605
1657787295629469200,2.65046923828125,1.0329548120498657,-0.006545476149767637,9.752080917358398
1657787295639466000,2.660466064453125,1.0545213222503662,0.3441922068595886,9.743699073791504
1657787295649466000,2.670466064453125,1.0723954439163208,0.670802891254425,9.72472095489502
1657787295659466000,2.680466064453125,1.091781735420227,0.9764511585235596,9.696630477905273
1657787295669466000,2.690466064453125,1.1112316846847534,1.2614139318466187,9.661468505859375
1657787295679466000,2.700466064453125,1.1243834495544434,1.5176881551742554,9.623013496398926
1657787295689465900,2.7104658203125,1.1187106370925903,1.7429038286209106,9.58544921875
1657787295698892500,2.719892578125,1.0775333642959595,1.9291671514511108,9.554443359375
1657787295707824000,2.72882421875,0.9798200130462646,2.066105842590332,9.5363130569458
1657787295723851000,2.74485107421875,0.9798200130462646,2.066105842590332,9.5363130569458
1657787295733850000,2.75485009765625,0.8263093829154968,2.161407470703125,9.529731750488281
1657787295743850000,2.76485009765625,0.628650963306427,2.223233222961426,9.530587196350098
1657787295749837000,2.770837158203125,0.4056435823440552,2.260990858078003,9.533796310424805
1657787295754495000,2.775494873046875,0.179665669798851,2.282456636428833,9.535627365112305
1657787295770526000,2.79152587890625,-0.04668634757399559,2.299022674560547,9.53321647644043
1657787295780521000,2.80152099609375,-0.2632330060005188,2.3010432720184326,9.529211044311523
1657787295790521000,2.81152099609375,-0.46594753861427307,2.2897560596466064,9.524187088012695
1657787295800521000,2.82152099609375,-0.6533306241035461,2.2588815689086914,9.52053165435791
1657787295810521300,2.831521240234375,-0.8133505582809448,2.200676202774048,9.521856307983398
1657787295820514600,2.8415146484375,-0.9290221333503723,2.106987476348877,9.532448768615723
1657787295830512000,2.85151220703125,-0.998444676399231,1.9852339029312134,9.551557540893555
1657787295840513500,2.861513427734375,-1.023695468902588,1.8374483585357666,9.57840633392334
1657787295850513400,2.871513427734375,-1.006748914718628,1.6575953960418701,9.61296272277832
1657787295860513500,2.881513427734375,-0.9565081000328064,1.446513295173645,9.652071952819824
1657787295870510800,2.8915107421875,-0.8765186667442322,1.2043256759643555,9.692854881286621
1657787295880510700,2.9015107421875,-0.770673394203186,0.9316864013671875,9.731804847717285
1657787295890509300,2.91150927734375,-0.6403139233589172,0.6315864324569702,9.765298843383789
1657787295900509400,2.921509521484375,-0.49559274315834045,0.31340867280960083,9.789079666137695
1657787295910509300,2.93150927734375,-0.3432411849498749,-0.017998890951275826,9.800604820251465
1657787295919936000,2.94093603515625,-0.18904373049736023,-0.3559665381908417,9.79833698272705
1657787295928867600,2.94986767578125,-0.04055880382657051,-0.698017954826355,9.7816743850708
1657787295944894700,2.965894775390625,-0.04055880382657051,-0.698017954826355,9.7816743850708
1657787295954894600,2.97589453125,0.08194295316934586,-1.0505255460739136,9.749860763549805
1657787295964893700,2.985893798828125,0.16703297197818756,-1.417635440826416,9.702195167541504
1657787295970880300,2.99188037109375,0.2065589278936386,-1.7982697486877441,9.638140678405762
1657787295975538000,2.996537841796875,0.2093716561794281,-2.185580015182495,9.557685852050781
1657787295991564800,3.012564697265625,0.2081809788942337,-2.570136547088623,9.461568832397461
1657787296001564000,3.02256396484375,0.188201442360878,-2.9504947662353516,9.350358963012695
1657787296011563800,3.032563720703125,0.1583089828491211,-3.3224196434020996,9.225318908691406
1657787296021564000,3.04256396484375,0.13510406017303467,-3.6852803230285645,9.086836814880371
1657787296031564300,3.052564208984375,0.14308570325374603,-4.03522253036499,8.936805725097656
1657787296041564400,3.062564453125,0.18597908318042755,-4.375181674957275,8.774585723876953
1657787296051564500,3.072564453125,0.24868717789649963,-4.716675758361816,8.594263076782227
1657787296061565700,3.082565673828125,0.30194181203842163,-5.064429759979248,8.3922758102417
1657787296071565800,3.09256591796875,0.3275654911994934,-5.406549453735352,8.175084114074707
1657787296081566000,3.10256591796875,0.32461658120155334,-5.730830192565918,7.951252460479736
1657787296091565800,3.11256591796875,0.30200669169425964,-6.0287861824035645,7.728690147399902
1657787296101566000,3.12256591796875,0.27497896552085876,-6.304800033569336,7.506258487701416
1657787296111566000,3.132566162109375,0.24869975447654724,-6.563553810119629,7.2820329666137695
1657787296121566000,3.14256591796875,0.22107289731502533,-6.804702281951904,7.058128833770752
1657787296131566000,3.152566162109375,0.19218729436397552,-7.0269246101379395,6.837783336639404
1657787296141421300,3.16242138671875,0.16436989605426788,-7.227888584136963,6.625759124755859
1657787296150753800,3.17175390625,0.14047493040561676,-7.404700756072998,6.428128719329834
1657787296160128800,3.181128662109375,0.14047493040561676,-7.404700756072998,6.428128719329834
1657787296169540600,3.19054052734375,0.11979951709508896,-7.564767360687256,6.239392280578613
1657787296178985200,3.199985107421875,0.10018354654312134,-7.717638969421387,6.049628257751465
1657787296188036400,3.209036376953125,0.08297668397426605,-7.872180938720703,5.84739875793457
1657787296196735000,3.21773486328125,0.07433832436800003,-8.025491714477539,5.635263442993164
1657787296212762000,3.23376220703125,0.07433832436800003,-8.025491714477539,5.635263442993164
1657787296222761000,3.243760986328125,0.0770890861749649,-8.173555374145508,5.418204307556152
1657787296232761000,3.253760986328125,0.09844137728214264,-8.314238548278809,5.199396133422852
1657787296242761500,3.263761474609375,0.13891425728797913,-8.44507122039795,4.983127593994141
1657787296252761600,3.27376171875,0.19767975807189941,-8.566290855407715,4.769654750823975
1657787296262761500,3.283761474609375,0.2588346302509308,-8.678569793701172,4.559118747711182
1657787296272761600,3.29376171875,0.31280001997947693,-8.784781455993652,4.347386837005615
1657787296282762500,3.303762451171875,0.356392502784729,-8.886164665222168,4.132704257965088
1657787296292762600,3.3137626953125,0.38504210114479065,-8.982181549072266,3.916910409927368
1657787296302762800,3.3237626953125,0.4017895460128784,-9.072083473205566,3.702165365219116
1657787296312762600,3.3337626953125,0.4106745719909668,-9.156134605407715,3.4880809783935547
1657787296322762800,3.3437626953125,0.4157213270664215,-9.234077453613281,3.2755181789398193
1657787296332763000,3.353762939453125,0.4195709824562073,-9.30594539642334,3.0648937225341797
1657787296342762800,3.3637626953125,0.42107993364334106,-9.370805740356445,2.8602001667022705
1657787296352763000,3.373762939453125,0.4196748733520508,-9.428376197814941,2.6645050048828125
1657787296362618000,3.3836181640625,0.41478490829467773,-9.478891372680664,2.4796295166015625
1657787296371950300,3.392950439453125,0.4046982526779175,-9.52243423461914,2.3085641860961914
1657787296381325300,3.4023251953125,0.4046982526779175,-9.52243423461914,2.3085641860961914
1657787296390737200,3.411737060546875,0.3897818624973297,-9.558659553527832,2.156379222869873
1657787296400181500,3.421181396484375,0.37298035621643066,-9.588546752929688,2.022528648376465
1657787296409233000,3.43023291015625,0.35517582297325134,-9.61266803741455,1.9079827070236206
1657787296417931500,3.438931640625,0.33529987931251526,-9.63171672821045,1.8132340908050537
1657787296433958700,3.454958740234375,0.33529987931251526,-9.63171672821045,1.8132340908050537
1657787296443958500,3.46495849609375,0.3099997341632843,-9.645939826965332,1.7406020164489746
1657787296453957600,3.47495751953125,0.27853623032569885,-9.656919479370117,1.684157133102417
1657787296463957500,3.48495751953125,0.24043840169906616,-9.664987564086914,1.643265962600708
1657787296473957600,3.49495751953125,0.19961495697498322,-9.671204566955566,1.6117875576019287
1657787296483957200,3.504957275390625,0.1604025959968567,-9.676383972167969,1.5849127769470215
1657787296493957000,3.51495703125,0.1302965134382248,-9.681099891662598,1.5586875677108765
1657787296503955700,3.524955810546875,0.11495617032051086,-9.685656547546387,1.5312780141830444
1657787296513955800,3.534955810546875,0.11872954666614532,-9.689791679382324,1.5046234130859375
1657787296523955700,3.544955810546875,0.1432889699935913,-9.692514419555664,1.4848204851150513
1657787296533957000,3.55495703125,0.19038419425487518,-9.692172050476074,1.481704592704773
1657787296543957000,3.56495703125,0.25355347990989685,-9.687677383422852,1.5015467405319214
1657787296553957000,3.57495703125,0.32806071639060974,-9.677347183227539,1.5528689622879028
1657787296563957000,3.58495703125,0.4093199372291565,-9.658787727355957,1.6463568210601807
1657787296573956900,3.594956787109375,0.49025970697402954,-9.631559371948242,1.7784671783447266
1657787296583955000,3.604954833984375,0.5645750761032104,-9.594515800476074,1.9484742879867554
1657787296593954800,3.614954833984375,0.6267051100730896,-9.545670509338379,2.1581430435180664
1657787296603955000,3.624954833984375,0.6742880940437317,-9.48452091217041,2.399845838546753
1657787296613954800,3.634954833984375,0.7076262831687927,-9.409134864807129,2.6716134548187256
1657787296623509000,3.644509033203125,0.7259870171546936,-9.316344261169434,2.974682569503784
1657787296632665300,3.653665283203125,0.727134108543396,-9.205023765563965,3.302868366241455
1657787296648690400,3.6696904296875,0.727134108543396,-9.205023765563965,3.302868366241455
1657787296658690300,3.679690185546875,0.7090177536010742,-9.073527336120605,3.652172088623047
1657787296668690400,3.6896904296875,0.6725526452064514,-8.920293807983398,4.018218517303467
1657787296678690800,3.69969091796875,0.622513473033905,-8.745963096618652,4.3921356201171875
1657787296688691200,3.709691162109375,0.5676295161247253,-8.549180030822754,4.770674705505371
1657787296698691300,3.71969140625,0.5198349356651306,-8.328262329101562,5.151707649230957
1657787296708691200,3.729691162109375,0.48485681414604187,-8.082942008972168,5.531800746917725
1657787296718691300,3.73969140625,0.4666402041912079,-7.812768936157227,5.908707618713379
1657787296728691500,3.74969140625,0.4695236384868622,-7.5151495933532715,6.282690525054932
1657787296738691300,3.75969140625,0.48971888422966003,-7.190736770629883,6.650071620941162
1657787296748691500,3.76969140625,0.5240256190299988,-6.839168071746826,7.0086565017700195
1657787296758688800,3.779688720703125,0.5730471611022949,-6.459420680999756,7.356479167938232
1657787296768688600,3.789688720703125,0.6332610845565796,-6.0543622970581055,7.6885504722595215
1657787296778688500,3.7996884765625,0.7035872340202332,-5.6277947425842285,8.000188827514648
1657787296788688600,3.809688720703125,0.7837451100349426,-5.1842498779296875,8.287301063537598
1657787296798115300,3.819115234375,0.8704062700271606,-4.726896286010742,8.548044204711914
1657787296807047000,3.828046875,0.9616594910621643,-4.258824348449707,8.781100273132324
1657787296823061000,3.84406103515625,0.9616594910621643,-4.258824348449707,8.781100273132324
1657787296833073000,3.854072998046875,1.0521265268325806,-3.7793102264404297,8.987772941589355
1657787296843073000,3.864072998046875,1.1567729711532593,-3.2903637886047363,9.165454864501953
1657787296853073400,3.874073486328125,1.2697780132293701,-2.7883214950561523,9.315739631652832
1657787296863073800,3.88407373046875,1.393968939781189,-2.2700626850128174,9.437894821166992
1657787296873074000,3.894073974609375,1.5235422849655151,-1.7384170293807983,9.530315399169922
1657787296883074000,3.904073974609375,1.6496517658233643,-1.1984535455703735,9.59231948852539
1657787296893074200,3.91407421875,1.7527368068695068,-0.6637682914733887,9.625872611999512
1657787296903074300,3.92407421875,1.8206390142440796,-0.14524301886558533,9.63505744934082
1657787296913074200,3.93407421875,1.84566068649292,0.3469499945640564,9.625140190124512
1657787296923074300,3.94407421875,1.8201667070388794,0.7998483777046204,9.602994918823242
1657787296933074200,3.95407421875,1.7584651708602905,1.2147294282913208,9.570913314819336
1657787296943074300,3.96407421875,1.6720213890075684,1.5955352783203125,9.530413627624512
1657787296953074200,3.97407421875,1.5650334358215332,1.94583261013031,9.483379364013672
1657787296963074300,3.98407421875,1.4422376155853271,2.272451162338257,9.430051803588867
1657787296973074400,3.994074462890625,1.3107459545135498,2.576774835586548,9.370826721191406
1657787296983074600,4.004074462890625,1.1816086769104004,2.8584442138671875,9.3060941696167
1657787296993077000,4.014076904296875,1.062799334526062,3.122725486755371,9.235209465026855
1657787297003076900,4.024076904296875,0.9568237662315369,3.369382381439209,9.15979290008545
1657787297013077000,4.034076904296875,0.8699918985366821,3.5937769412994385,9.082844734191895
1657787297023076900,4.044076904296875,0.8028993010520935,3.786909580230713,9.010250091552734
1657787297033077000,4.054076904296875,0.7557085156440735,3.942903518676758,8.9472017288208
1657787297043076900,4.064076904296875,0.7276923656463623,4.0547027587890625,8.899434089660645
1657787297053077000,4.074076904296875,0.719277560710907,4.109817981719971,8.874802589416504
1657787297063077000,4.0840771484375,0.7260136008262634,4.109114170074463,8.874581336975098
1657787297073077000,4.094076904296875,0.7477812170982361,4.0477471351623535,8.900938987731934
1657787297083077000,4.1040771484375,0.7775129079818726,3.909846544265747,8.959832191467285
1657787297093077000,4.114076904296875,0.8107348084449768,3.7170019149780273,9.038634300231934
1657787297103077000,4.1240771484375,0.8383955359458923,3.4679644107818604,9.134561538696289
1657787297113077000,4.134076904296875,0.8554150462150574,3.165968179702759,9.24203109741211
1657787297123077000,4.1440771484375,0.8616214990615845,2.825204372406006,9.351250648498535
1657787297133077200,4.1540771484375,0.8574270009994507,2.451308250427246,9.456533432006836
1657787297143077000,4.1640771484375,0.8444821834564209,2.045196056365967,9.553742408752441
1657787297153076700,4.17407666015625,0.8267956972122192,1.612668752670288,9.637730598449707
1657787297163076600,4.18407666015625,0.8079670667648315,1.1579773426055908,9.704452514648438
1657787297173076500,4.194076416015625,0.7937848567962646,0.6831417083740234,9.750565528869629
1657787297183076600,4.20407666015625,0.7897410988807678,0.19017836451530457,9.772923469543457
1657787297193076500,4.214076416015625,0.8012643456459045,-0.3207831382751465,9.768574714660645
1657787297203076600,4.22407666015625,0.8377403020858765,-0.8593573570251465,9.732926368713379
1657787297213076500,4.234076416015625,0.8937264084815979,-1.4239704608917236,9.661450386047363
1657787297223076600,4.24407666015625,0.9700725674629211,-2.0113179683685303,9.54901123046875
1657787297233076500,4.254076416015625,1.065408706665039,-2.6186084747314453,9.390316009521484
1657787297243076600,4.26407666015625,1.171553134918213,-3.233849048614502,9.183673858642578
1657787297253076700,4.27407666015625,1.281079649925232,-3.8482086658477783,8.928622245788574
1657787297263076600,4.28407666015625,1.3826123476028442,-4.449235439300537,8.62918472290039
1657787297273076500,4.294076416015625,1.463557481765747,-5.025647163391113,8.292835235595703
1657787297283076600,4.30407666015625,1.515553593635559,-5.571698188781738,7.926499366760254
1657787297293075200,4.3140751953125,1.5331284999847412,-6.082411766052246,7.5381646156311035
1657787297303075300,4.324075439453125,1.517632246017456,-6.558048248291016,7.131543159484863
1657787297313075200,4.3340751953125,1.4730536937713623,-6.997983932495117,6.710329055786133
1657787297323075300,4.344075439453125,1.4069985151290894,-7.400712490081787,6.278542518615723
1657787297333075200,4.3540751953125,1.3288578987121582,-7.766880989074707,5.8377814292907715
1657787297343075300,4.364075439453125,1.2451894283294678,-8.094735145568848,5.393972873687744
1657787297353075200,4.3740751953125,1.1608093976974487,-8.382014274597168,4.956265449523926
1657787297363075300,4.384075439453125,1.0776712894439697,-8.631080627441406,4.529146194458008
1657787297373075200,4.3940751953125,0.9994786977767944,-8.843673706054688,4.118329048156738
1657787297383075300,4.404075439453125,0.9299910068511963,-9.021214485168457,3.7313215732574463
1657787297393075200,4.4140751953125,0.8695985078811646,-9.169556617736816,3.366485595703125
1657787297403075300,4.424075439453125,0.8193211555480957,-9.292004585266113,3.0261127948760986
1657787297413075200,4.4340751953125,0.7810255885124207,-9.389923095703125,2.718363046646118
1657787297423075300,4.444075439453125,0.7531588077545166,-9.467057228088379,2.444891929626465
1657787297433075200,4.4540751953125,0.7364560961723328,-9.526412010192871,2.207993745803833
1657787297443075000,4.464074951171875,0.7339873909950256,-9.57022762298584,2.0104799270629883
1657787297453075700,4.47407568359375,0.7431234121322632,-9.602938652038574,1.8442113399505615
1657787297463075800,4.484075927734375,0.762317955493927,-9.627219200134277,1.7045634984970093
1657787297473075700,4.49407568359375,0.7908899784088135,-9.644604682922363,1.5894147157669067
1657787297483075800,4.504075927734375,0.8231342434883118,-9.657470703125,1.4918487071990967
1657787297493075700,4.51407568359375,0.8510992527008057,-9.66751480102539,1.4088102579116821
1657787297503075800,4.524075927734375,0.8671198487281799,-9.675898551940918,1.3398334980010986
1657787297513075700,4.53407568359375,0.8795876502990723,-9.681907653808594,1.2872692346572876
1657787297523075800,4.544075927734375,0.8942793607711792,-9.685572624206543,1.2490519285202026
1657787297533075700,4.55407568359375,0.9152087569236755,-9.686864852905273,1.2236307859420776
1657787297543075800,4.564075927734375,0.9512521028518677,-9.685388565063477,1.2077207565307617
1657787297553075700,4.57407568359375,1.0064595937728882,-9.681325912475586,1.1953388452529907
1657787297563075600,4.58407568359375,1.0814907550811768,-9.674638748168945,1.1840063333511353
1657787297573075700,4.59407568359375,1.170730710029602,-9.665451049804688,1.1740806102752686
1657787297583075800,4.604075927734375,1.259745478630066,-9.655248641967773,1.1658446788787842
1657787297593075700,4.61407568359375,1.335488200187683,-9.645950317382812,1.158527135848999
1657787297603075600,4.62407568359375,1.3877722024917603,-9.639593124389648,1.1499834060668945
1657787297613075700,4.63407568359375,1.4190456867218018,-9.636860847473145,1.1345477104187012
1657787297623075600,4.64407568359375,1.4326497316360474,-9.637898445129395,1.1084016561508179
1657787297633075700,4.65407568359375,1.4330229759216309,-9.642033576965332,1.0713447332382202
1657787297643075600,4.66407568359375,1.4272834062576294,-9.64712905883789,1.0323317050933838
1657787297653075700,4.67407568359375,1.422312617301941,-9.651058197021484,1.0020339488983154
1657787297663075800,4.684075927734375,1.4249030351638794,-9.651474952697754,0.9943936467170715
1657787297673075700,4.69407568359375,1.43805730342865,-9.647137641906738,1.0172803401947021
1657787297683075800,4.704075927734375,1.4631776809692383,-9.636760711669922,1.0780308246612549
1657787297693075700,4.71407568359375,1.5004801750183105,-9.61805534362793,1.188096284866333
1657787297703075600,4.72407568359375,1.5432746410369873,-9.590563774108887,1.3451590538024902
1657787297713075500,4.734075439453125,1.5852622985839844,-9.55264663696289,1.5504717826843262
1657787297723075600,4.74407568359375,1.6176260709762573,-9.502144813537598,1.8062851428985596
1657787297733075700,4.75407568359375,1.6297215223312378,-9.43892765045166,2.102571725845337
1657787297743075600,4.76407568359375,1.6144992113113403,-9.361430168151855,2.434563636779785
1657787297753075500,4.774075439453125,1.5655498504638672,-9.266422271728516,2.8022377490997314
1657787297763075600,4.78407568359375,1.487201452255249,-9.15050983428955,3.197871685028076
1657787297773075500,4.794075439453125,1.3846453428268433,-9.008784294128418,3.618666172027588
1657787297783075600,4.80407568359375,1.2667474746704102,-8.834623336791992,4.063856601715088
1657787297793075500,4.814075439453125,1.1491245031356812,-8.624195098876953,4.524686336517334
1657787297803075600,4.82407568359375,1.0471504926681519,-8.373419761657715,4.995940685272217
1657787297813075700,4.83407568359375,0.9779360890388489,-8.077445030212402,5.474360942840576
1657787297823075600,4.84407568359375,0.9459393620491028,-7.738062858581543,5.949605941772461
1657787297833075500,4.854075439453125,0.9545926451683044,-7.358021259307861,6.412344455718994
1657787297843075600,4.86407568359375,1.0054126977920532,-6.941272258758545,6.854039669036865
1657787297853075700,4.87407568359375,1.0892244577407837,-6.493765354156494,7.267373561859131
1657787297863075800,4.884075927734375,1.1991846561431885,-6.020253658294678,7.647789478302002
1657787297873075700,4.89407568359375,1.326363205909729,-5.523238658905029,7.99404764175415
1657787297883075800,4.904075927734375,1.4581745862960815,-5.003770351409912,8.306989669799805
1657787297893075700,4.91407568359375,1.58538818359375,-4.465067386627197,8.58603572845459
1657787297903075800,4.924075927734375,1.7005466222763062,-3.911323308944702,8.830618858337402
1657787297913075700,4.93407568359375,1.7969694137573242,-3.3464508056640625,9.041145324707031
1657787297923075800,4.944075927734375,1.8701339960098267,-2.775148391723633,9.217982292175293
1657787297933075700,4.95407568359375,1.9228520393371582,-2.204766273498535,9.360121726989746
1657787297943075800,4.964075927734375,1.963046669960022,-1.639841079711914,9.467183113098145
1657787297953075700,4.97407568359375,1.9940484762191772,-1.0853159427642822,9.540227890014648
1657787297963075800,4.984075927734375,2.0178987979888916,-0.545146107673645,9.581292152404785
1657787297973075700,4.99407568359375,2.0346062183380127,-0.025008386000990868,9.59322452545166
1657787297983075800,5.004075927734375,2.0413999557495117,0.47441843152046204,9.580065727233887
1657787297993076000,5.014075927734375,2.038517713546753,0.9517444968223572,9.54509449005127
1657787298003076400,5.024076416015625,2.0255537033081055,1.4028860330581665,9.4920654296875
1657787298013076500,5.034076416015625,2.0035650730133057,1.8317761421203613,9.423394203186035
1657787298023076400,5.044076416015625,1.972651481628418,2.2405858039855957,9.341230392456055
1657787298033076200,5.054076171875,1.9337071180343628,2.6262717247009277,9.248445510864258
1657787298043076000,5.064076171875,1.89094877243042,2.989083766937256,9.14657211303711
1657787298053076200,5.074076171875,1.8446903228759766,3.3260467052459717,9.039055824279785
1657787298063075800,5.084075927734375,1.7894103527069092,3.632776975631714,8.93146800994873
1657787298073075700,5.09407568359375,1.7249480485916138,3.9110212326049805,8.826017379760742
1657787298083075800,5.104075927734375,1.6527409553527832,4.158318996429443,8.726224899291992
1657787298093075700,5.11407568359375,1.5758605003356934,4.366500377655029,8.638307571411133
1657787298103075800,5.124075927734375,1.4993693828582764,4.537466526031494,8.56348991394043
1657787298113075700,5.13407568359375,1.427331805229187,4.670040130615234,8.504337310791016
1657787298123075800,5.144075927734375,1.3643003702163696,4.759799957275391,8.464816093444824
1657787298133075700,5.15407568359375,1.3104296922683716,4.812341690063477,8.443592071533203
1657787298143075600,5.16407568359375,1.2645972967147827,4.830441474914551,8.440244674682617
1657787298153075500,5.174075439453125,1.2216531038284302,4.809964179992676,8.458250045776367
1657787298163075300,5.184075439453125,1.178114414215088,4.753086090087891,8.496480941772461
1657787298173075200,5.1940751953125,1.1341571807861328,4.6585211753845215,8.554644584655762
1657787298183075300,5.204075439453125,1.0903571844100952,4.5213446617126465,8.633566856384277
1657787298193075200,5.2140751953125,1.0479835271835327,4.347099781036377,8.72780990600586
1657787298203075000,5.224074951171875,1.012236475944519,4.135043621063232,8.8344144821167
1657787298213075000,5.234074951171875,0.9899433851242065,3.878905773162842,8.952323913574219
1657787298223075000,5.244074951171875,0.9819079637527466,3.5814359188079834,9.076301574707031
1657787298233075000,5.254074951171875,0.9872557520866394,3.2419793605804443,9.202451705932617
1657787298243075000,5.264074951171875,1.0070347785949707,2.857637643814087,9.326842308044434
1657787298253075000,5.274074951171875,1.0372217893600464,2.4333858489990234,9.44313907623291
1657787298263075000,5.284074951171875,1.0754787921905518,1.971060872077942,9.546122550964355
1657787298273075000,5.294074951171875,1.1222370862960815,1.4710394144058228,9.630512237548828
1657787298283075000,5.304074951171875,1.1713789701461792,0.9399805665016174,9.690949440002441
1657787298293075000,5.314074951171875,1.218269944190979,0.3808028995990753,9.723220825195312
1657787298303074600,5.324074462890625,1.2601847648620605,-0.2052171230316162,9.723165512084961
1657787298313074400,5.334074462890625,1.2939958572387695,-0.8105605840682983,9.687043190002441
1657787298323074600,5.344074462890625,1.3152379989624023,-1.4272822141647339,9.612653732299805
1657787298333074700,5.35407470703125,1.3195534944534302,-2.046877384185791,9.499433517456055
1657787298343074800,5.36407470703125,1.3074562549591064,-2.6607556343078613,9.347784996032715
1657787298353074700,5.37407470703125,1.2801198959350586,-3.263881206512451,9.158526420593262
1657787298363075000,5.384074951171875,1.238950252532959,-3.850529193878174,8.933570861816406
1657787298373075200,5.3940751953125,1.185792088508606,-4.417621612548828,8.674601554870605
1657787298383075000,5.404074951171875,1.1229618787765503,-4.9625115394592285,8.383476257324219
1657787298393075200,5.4140751953125,1.0527911186218262,-5.480221271514893,8.064046859741211
1657787298403075000,5.424074951171875,0.9788731336593628,-5.967589855194092,7.720077037811279
1657787298413075200,5.4340751953125,0.904576301574707,-6.419994354248047,7.357682704925537
1657787298423075000,5.444074951171875,0.8341869711875916,-6.8293633460998535,6.988136291503906
1657787298433075200,5.4540751953125,0.7714742422103882,-7.195878028869629,6.6177167892456055
1657787298443075300,5.464075439453125,0.7212135195732117,-7.520020484924316,6.252933025360107
1657787298453075200,5.4740751953125,0.6852215528488159,-7.803528785705566,5.899610996246338
1657787298463075300,5.484075439453125,0.6654232144355774,-8.046032905578613,5.566751480102539
1657787298473075500,5.494075439453125,0.6592647433280945,-8.253716468811035,5.254679203033447
1657787298483075300,5.504075439453125,0.6658031940460205,-8.430913925170898,4.964515686035156
1657787298493075500,5.514075439453125,0.6840192079544067,-8.580793380737305,4.698111057281494
1657787298503075600,5.52407568359375,0.7060691118240356,-8.709856033325195,4.450854778289795
1657787298513075700,5.53407568359375,0.7274118065834045,-8.822639465332031,4.2192182540893555
1657787298523075600,5.54407568359375,0.7439700961112976,-8.921806335449219,4.002242088317871
1657787298533075700,5.55407568359375,0.7527578473091125,-9.010784149169922,3.795933485031128
1657787298543076600,5.56407666015625,0.7530009746551514,-9.09089183807373,3.599825859069824
1657787298553076500,5.574076416015625,0.745514988899231,-9.162055969238281,3.4162943363189697
1657787298563076600,5.58407666015625,0.7308382391929626,-9.225653648376465,3.243943691253662
1657787298573076500,5.594076416015625,0.7098954319953918,-9.282588958740234,3.0821609497070312
1657787298583076600,5.60407666015625,0.6836351752281189,-9.33311653137207,2.931807279586792
1657787298593076500,5.614076416015625,0.6538678407669067,-9.378684997558594,2.7897815704345703
1657787298603076600,5.62407666015625,0.6225994229316711,-9.420308113098145,2.6533870697021484
1657787298613076500,5.634076416015625,0.5922784805297852,-9.458345413208008,2.5217103958129883
1657787298623076600,5.64407666015625,0.5646300315856934,-9.493382453918457,2.3931119441986084
1657787298633076500,5.654076416015625,0.5423404574394226,-9.525583267211914,2.266977548599243
1657787298643076600,5.66407666015625,0.5293424725532532,-9.554611206054688,2.1446261405944824
1657787298653076200,5.674076171875,0.5261673331260681,-9.580245018005371,2.0278279781341553
1657787298663076000,5.684076171875,0.5299631953239441,-9.602295875549316,1.9197005033493042
1657787298673076200,5.694076171875,0.5358078479766846,-9.620311737060547,1.825526237487793
1657787298683076000,5.704076171875,0.5365022420883179,-9.635310173034668,1.7444257736206055
1657787298693076200,5.714076171875,0.5265799760818481,-9.647847175598145,1.6768407821655273
1657787298703076000,5.724076171875,0.5009738206863403,-9.658398628234863,1.6230875253677368
1657787298713076500,5.734076416015625,0.46382105350494385,-9.667634963989258,1.5785449743270874
1657787298723076600,5.74407666015625,0.4247843325138092,-9.675395965576172,1.541467547416687
1657787298733076500,5.754076416015625,0.3971247673034668,-9.681012153625488,1.5133693218231201
1657787298743076600,5.76407666015625,0.3884107172489166,-9.683684349060059,1.4984686374664307
1657787298753076500,5.774076416015625,0.4019429683685303,-9.681757926940918,1.5073162317276
1657787298763076600,5.78407666015625,0.4399462640285492,-9.672237396240234,1.5570459365844727
1657787298773076700,5.79407666015625,0.49659812450408936,-9.653657913208008,1.6523747444152832
1657787298783076600,5.80407666015625,0.5688771605491638,-9.623895645141602,1.7964158058166504
1657787298793076200,5.814076171875,0.6530752182006836,-9.57999038696289,1.9917806386947632
1657787298803076400,5.824076416015625,0.7410720586776733,-9.521531105041504,2.2273776531219482
1657787298813076200,5.834076171875,0.8256763219833374,-9.447696685791016,2.4958319664001465
1657787298823075300,5.844075439453125,0.9003957509994507,-9.35726261138916,2.7930264472961426
1657787298833075500,5.854075439453125,0.9619418382644653,-9.25058650970459,3.109862804412842
1657787298843074600,5.864074462890625,1.008005142211914,-9.126357078552246,3.444368839263916
1657787298853074400,5.874074462890625,1.0393465757369995,-8.981098175048828,3.7986488342285156
1657787298863074600,5.884074462890625,1.0607932806015015,-8.812561988830566,4.169363498687744
1657787298873074400,5.894074462890625,1.0757588148117065,-8.617469787597656,4.555442810058594
1657787298883075000,5.904074951171875,1.0873398780822754,-8.391033172607422,4.9576334953308105
1657787298893075000,5.914074951171875,1.0960609912872314,-8.132942199707031,5.368810176849365
1657787298903074800,5.92407470703125,1.1035826206207275,-7.842752456665039,5.783028602600098
1657787298913075000,5.934074951171875,1.1121861934661865,-7.520108222961426,6.195252895355225
1657787298923075000,5.944074951171875,1.1255232095718384,-7.163885116577148,6.601667881011963
1657787298933075000,5.954074951171875,1.143715262413025,-6.775524139404297,6.996726989746094
1657787298943075000,5.964074951171875,1.1659873723983765,-6.3557963371276855,7.37661075592041
1657787298953075500,5.974075439453125,1.1917308568954468,-5.905315399169922,7.738032341003418
1657787298963075300,5.984075439453125,1.2202444076538086,-5.428526401519775,8.075397491455078
1657787298973075500,5.994075439453125,1.2531027793884277,-4.928623199462891,8.38501262664795
1657787298983075300,6.004075439453125,1.2888613939285278,-4.409270763397217,8.664138793945312
1657787298993075000,6.014074951171875,1.324000597000122,-3.8749446868896484,8.91076946258545
1657787299003075000,6.024074951171875,1.361720323562622,-3.3296308517456055,9.123010635375977
1657787299013074700,6.03407470703125,1.4057295322418213,-2.7785465717315674,9.299123764038086
1657787299023074600,6.044074462890625,1.4558383226394653,-2.224944591522217,9.439303398132324
1657787299033074700,6.05407470703125,1.5106910467147827,-1.6729620695114136,9.544073104858398
1657787299043074600,6.064074462890625,1.5667840242385864,-1.1280021667480469,9.614723205566406
1657787299053074700,6.07407470703125,1.6201772689819336,-0.5930647850036621,9.653675079345703
1657787299063074600,6.084074462890625,1.6704022884368896,-0.0722339004278183,9.66305923461914
1657787299073074700,6.09407470703125,1.7172890901565552,0.42734014987945557,9.645642280578613
1657787299083074600,6.104074462890625,1.7600609064102173,0.9036998748779297,9.604978561401367
1657787299093075000,6.114074951171875,1.7961965799331665,1.3549731969833374,9.545042991638184
1657787299103075000,6.124074951171875,1.8219974040985107,1.7757045030593872,9.470870018005371
1657787299113075000,6.134074951171875,1.836517572402954,2.1682019233703613,9.38594913482666
1657787299123075800,6.144075927734375,1.8378695249557495,2.5332021713256836,9.293831825256348
1657787299133076000,6.154075927734375,1.824092984199524,2.8700008392333984,9.198149681091309
1657787299143075800,6.164075927734375,1.7960078716278076,3.1855063438415527,9.099296569824219
1657787299153076000,6.174075927734375,1.7524422407150269,3.4833967685699463,8.998047828674316
1657787299163075800,6.184075927734375,1.6912585496902466,3.763206958770752,8.896519660949707
1657787299173076000,6.194075927734375,1.612505316734314,4.027011394500732,8.795071601867676
1657787299183075300,6.204075439453125,1.5189024209976196,4.273266792297363,8.694958686828613
1657787299193075500,6.214075439453125,1.4171061515808105,4.49560546875,8.599506378173828
1657787299203075300,6.224075439453125,1.3155899047851562,4.691677093505859,8.510440826416016
1657787299213075200,6.2340751953125,1.221710443496704,4.857680320739746,8.430920600891113
1657787299223075300,6.244075439453125,1.1425772905349731,4.9864349365234375,8.366602897644043
1657787299233075200,6.2540751953125,1.0788304805755615,5.080547332763672,8.318306922912598
1657787299243075300,6.264075439453125,1.0295183658599854,5.140757083892822,8.287508964538574
1657787299253075200,6.2740751953125,0.9942536354064941,5.164135456085205,8.277277946472168
1657787299263075300,6.284075439453125,0.970289409160614,5.154364585876465,8.286201477050781
1657787299273075200,6.2940751953125,0.9587211012840271,5.107743263244629,8.316372871398926
1657787299283075300,6.304075439453125,0.9610036611557007,5.012124538421631,8.374077796936035
1657787299293075700,6.31407568359375,0.9719085097312927,4.8668599128723145,8.458087921142578
1657787299303075600,6.32407568359375,0.986461341381073,4.669338226318359,8.567047119140625
1657787299313075700,6.33407568359375,0.9978811740875244,4.4169697761535645,8.698545455932617
1657787299323075600,6.34407568359375,0.9999223351478577,4.12026309967041,8.84272575378418
1657787299333075700,6.35407568359375,0.9932318925857544,3.7832298278808594,8.99282169342041
1657787299343075600,6.36407568359375,0.979593813419342,3.406250476837158,9.143732070922852
1657787299353075200,6.3740751953125,0.9621294736862183,2.9975717067718506,9.287576675415039
1657787299363075300,6.384075439453125,0.9430044889450073,2.560718059539795,9.41930866241455
1657787299373075200,6.3940751953125,0.9256207942962646,2.0987117290496826,9.534619331359863
1657787299383075300,6.404075439453125,0.9152777194976807,1.6109532117843628,9.630023002624512
1657787299393075500,6.414075439453125,0.912880003452301,1.1021173000335693,9.701650619506836
1657787299403075300,6.424075439453125,0.9208633899688721,0.574320375919342,9.746406555175781
1657787299413075200,6.4340751953125,0.9428846836090088,0.026361901313066483,9.7611722946167
1657787299423075300,6.444075439453125,0.9773703217506409,-0.5377467274665833,9.742979049682617
1657787299433075500,6.454075439453125,1.0196568965911865,-1.1153476238250732,9.689498901367188
1657787299443075300,6.464075439453125,1.0662637948989868,-1.706413745880127,9.597987174987793
1657787299453075200,6.4740751953125,1.109457015991211,-2.3062021732330322,9.466829299926758
1657787299463075000,6.484074951171875,1.1438380479812622,-2.9110500812530518,9.294488906860352
1657787299473075000,6.494074951171875,1.1638035774230957,-3.514402151107788,9.081002235412598
1657787299483075000,6.504074951171875,1.164501428604126,-4.1052446365356445,8.82955551147461
1657787299493074400,6.514074462890625,1.1438217163085938,-4.6732940673828125,8.545297622680664
1657787299503074600,6.524074462890625,1.0982856750488281,-5.209092140197754,8.235845565795898
1657787299513074700,6.53407470703125,1.029538869857788,-5.710229873657227,7.9059157371521
1657787299523074600,6.544074462890625,0.9412234425544739,-6.174276828765869,7.560587406158447
1657787299533074400,6.554074462890625,0.8372048735618591,-6.598931789398193,7.205774307250977
1657787299543073800,6.56407373046875,0.720869243144989,-6.987199306488037,6.843217849731445
1657787299553073700,6.57407373046875,0.5949760675430298,-7.341182231903076,6.47481107711792
1657787299563073800,6.58407373046875,0.4570499360561371,-7.662024021148682,6.103649139404297
1657787299573073700,6.59407373046875,0.3048030436038971,-7.953872203826904,5.7282586097717285
1657787299583073800,6.60407373046875,0.13642624020576477,-8.218300819396973,5.348925590515137
1657787299593073700,6.61407373046875,-0.047208912670612335,-8.454874992370605,4.968214988708496
1657787299603073800,6.62407373046875,-0.24083121120929718,-8.662300109863281,4.590940952301025
1657787299613073700,6.63407373046875,-0.43769702315330505,-8.83765983581543,4.227809429168701
1657787299623073800,6.64407373046875,-0.628665566444397,-8.977628707885742,3.8957479000091553
1657787299633073700,6.65407373046875,-0.8060504198074341,-9.084977149963379,3.603285551071167
1657787299643073800,6.66407373046875,-0.9624030590057373,-9.16275691986084,3.3597121238708496
1657787299653074000,6.674073974609375,-1.0889283418655396,-9.214262962341309,3.1751492023468018
1657787299663074000,6.684073974609375,-1.1858160495758057,-9.247517585754395,3.0409460067749023
1657787299673074200,6.69407421875,-1.2519296407699585,-9.268526077270508,2.94905424118042
1657787299683073500,6.704073486328125,-1.2849187850952148,-9.282774925231934,2.889467477798462
1657787299693073700,6.71407373046875,-1.2924281358718872,-9.29539680480957,2.845212936401367
1657787299703073800,6.72407373046875,-1.278384804725647,-9.30925464630127,2.8059563636779785
1657787299713073700,6.73407373046875,-1.2445642948150635,-9.326186180114746,2.764648914337158
1657787299723073800,6.74407373046875,-1.1982704401016235,-9.34614372253418,2.717343807220459
1657787299733073700,6.75407373046875,-1.1435487270355225,-9.36827564239502,2.6641600131988525
1657787299743073800,6.76407373046875,-1.0849188566207886,-9.391558647155762,2.606072425842285
1657787299753073700,6.77407373046875,-1.0271958112716675,-9.414204597473145,2.5470974445343018
1657787299763074000,6.784073974609375,-0.9745274782180786,-9.434714317321777,2.4912495613098145
1657787299773074200,6.79407421875,-0.9314765334129333,-9.451642990112305,2.44307541847229
1657787299783074000,6.804073974609375,-0.8976444602012634,-9.46467113494873,2.40500807762146
1657787299793074200,6.81407421875,-0.8725123405456543,-9.473618507385254,2.378926992416382
1657787299803074000,6.824073974609375,-0.8539367914199829,-9.478492736816406,2.3662288188934326
1657787299813074200,6.83407421875,-0.8346130847930908,-9.48100757598877,2.363029718399048
1657787299823074000,6.844073974609375,-0.8075768947601318,-9.482349395751953,2.3670315742492676
1657787299833074000,6.854073974609375,-0.7676178216934204,-9.482934951782227,2.377938747406006
1657787299843074800,6.86407470703125,-0.7146362066268921,-9.480445861816406,2.404244899749756
1657787299853074400,6.874074462890625,-0.6463388800621033,-9.471848487854004,2.4568920135498047
1657787299863074600,6.884074462890625,-0.5638166666030884,-9.452622413635254,2.54954195022583
1657787299873074400,6.894074462890625,-0.4648509919643402,-9.416411399841309,2.699100971221924
1657787299883074600,6.904074462890625,-0.35317426919937134,-9.360318183898926,2.903421401977539
1657787299893074400,6.914074462890625,-0.23182255029678345,-9.282087326049805,3.1557953357696533
1657787299903074600,6.924074462890625,-0.10409662872552872,-9.179239273071289,3.449782133102417
1657787299913074400,6.934074462890625,0.02338409051299095,-9.05333137512207,3.7691874504089355
1657787299923074300,6.94407421875,0.14667876064777374,-8.904632568359375,4.105595111846924
1657787299933074400,6.954074462890625,0.2628115713596344,-8.732609748840332,4.454514980316162
1657787299943074600,6.964074462890625,0.3696393668651581,-8.538432121276855,4.809210300445557
1657787299953074400,6.974074462890625,0.4657745361328125,-8.322510719299316,5.166126251220703
1657787299963074600,6.984074462890625,0.5493295788764954,-8.085152626037598,5.522544860839844
1657787299973074400,6.994074462890625,0.6214327216148376,-7.827735424041748,5.874558448791504
1657787299983074800,7.00407470703125,0.6847428679466248,-7.5506672859191895,6.220012187957764
1657787299993074400,7.014074462890625,0.7442764043807983,-7.253227233886719,6.557947635650635
1657787300003074300,7.02407421875,0.8037497401237488,-6.935813903808594,6.886119842529297
1657787300013074400,7.034074462890625,0.8658142685890198,-6.598018169403076,7.203237056732178
1657787300023074300,7.04407421875,0.9324638247489929,-6.239750385284424,7.507739543914795
1657787300033074400,7.054074462890625,1.0035048723220825,-5.861878871917725,7.797524929046631
1657787300043074300,7.06407421875,1.0785861015319824,-5.465424537658691,8.0706787109375
1657787300053074400,7.074074462890625,1.1552993059158325,-5.050670623779297,8.326228141784668
1657787300063074600,7.084074462890625,1.2298264503479004,-4.620082855224609,8.562263488769531
1657787300073074400,7.094074462890625,1.2981985807418823,-4.17565393447876,8.777734756469727
1657787300083074300,7.10407421875,1.3560510873794556,-3.7205073833465576,8.971582412719727
1657787300093074700,7.11407470703125,1.4015958309173584,-3.2587358951568604,9.142557144165039
1657787300103075300,7.124075439453125,1.4325830936431885,-2.794186592102051,9.290331840515137
1657787300113075200,7.1340751953125,1.4457932710647583,-2.3319199085235596,9.41499137878418
1657787300123075300,7.144075439453125,1.4413433074951172,-1.8741252422332764,9.517363548278809
1657787300133075500,7.154075439453125,1.419692039489746,-1.4242254495620728,9.598247528076172
1657787300143075600,7.16407568359375,1.3833085298538208,-0.9872216582298279,9.65825366973877
1657787300153076000,7.174075927734375,1.3373650312423706,-0.5644255876541138,9.698602676391602
1657787300163075600,7.18407568359375,1.2840601205825806,-0.15738889575004578,9.720932006835938
1657787300173075700,7.19407568359375,1.2267332077026367,0.23129145801067352,9.726861000061035
1657787300183075600,7.20407568359375,1.170578122138977,0.6035144925117493,9.717793464660645
1657787300193075700,7.21407568359375,1.121128797531128,0.9610641598701477,9.694828033447266
1657787300203075600,7.22407568359375,1.0849738121032715,1.3047616481781006,9.658705711364746
1657787300213075700,7.23407568359375,1.064483404159546,1.637823224067688,9.610126495361328
1657787300223075600,7.24407568359375,1.0624340772628784,1.9621692895889282,9.549407005310059
1657787300233075700,7.25407568359375,1.0824614763259888,2.276285409927368,9.477182388305664
1657787300243075300,7.264075439453125,1.118570327758789,2.5777714252471924,9.395416259765625
1657787300253075500,7.274075439453125,1.1629314422607422,2.8608815670013428,9.30768871307373
1657787300263075300,7.284075439453125,1.2045756578445435,3.1183178424835205,9.219287872314453
1657787300273075000,7.294074951171875,1.2327905893325806,3.348491668701172,9.13443660736084
1657787300283075000,7.304074951171875,1.2414648532867432,3.546947956085205,9.0580415725708
1657787300293075200,7.3140751953125,1.2296621799468994,3.7083921432495117,8.994763374328613
1657787300303075300,7.324075439453125,1.2055377960205078,3.8362669944763184,8.944262504577637
1657787300313075500,7.334075439453125,1.176476001739502,3.929769992828369,8.907456398010254
1657787300323075300,7.344075439453125,1.1491303443908691,3.990070343017578,8.884191513061523
1657787300333075500,7.354075439453125,1.125793218612671,4.010939598083496,8.87779712677002
1657787300343075300,7.364075439453125,1.1058107614517212,3.991046667098999,8.88924789428711
1657787300353075500,7.374075439453125,1.0865437984466553,3.915323495864868,8.925228118896484
1657787300363075300,7.384075439453125,1.0668647289276123,3.782360076904297,8.984747886657715
1657787300373075500,7.394075439453125,1.0487141609191895,3.5886452198028564,9.065979957580566
1657787300383075300,7.404075439453125,1.0318769216537476,3.3328754901885986,9.16500473022461
1657787300393075000,7.414074951171875,1.017835021018982,3.0112147331237793,9.277225494384766
1657787300403074600,7.424074462890625,1.0090957880020142,2.6383254528045654,9.391010284423828
1657787300413074700,7.43407470703125,1.0077835321426392,2.2236006259918213,9.497907638549805
1657787300423074300,7.44407421875,1.018247127532959,1.770745038986206,9.591544151306152
1657787300433074200,7.45407421875,1.0390782356262207,1.2892274856567383,9.665840148925781
1657787300443074000,7.464073974609375,1.0670284032821655,0.7840873003005981,9.716825485229492
1657787300453073700,7.47407373046875,1.0965297222137451,0.257355272769928,9.741742134094238
1657787300463074300,7.48407421875,1.120880365371704,-0.28435543179512024,9.738216400146484
1657787300473074400,7.494074462890625,1.1379145383834839,-0.8377552628517151,9.704291343688965
1657787300483074300,7.50407421875,1.1479729413986206,-1.4015408754348755,9.637834548950195
1657787300493074400,7.514074462890625,1.1487959623336792,-1.9734342098236084,9.537084579467773
1657787300503074300,7.52407421875,1.1400246620178223,-2.549499273300171,9.400568008422852
1657787300513074400,7.534074462890625,1.119741678237915,-3.1255133152008057,9.227542877197266
1657787300523074300,7.54407421875,1.088055968284607,-3.6955275535583496,9.018284797668457
1657787300533074400,7.554074462890625,1.045070767402649,-4.254486083984375,8.773672103881836
1657787300543074600,7.564074462890625,0.9907827377319336,-4.797828674316406,8.495256423950195
1657787300553074700,7.57407470703125,0.9242091774940491,-5.319586277008057,8.186454772949219
1657787300563074800,7.58407470703125,0.8408709764480591,-5.81586217880249,7.851025581359863
1657787300573075500,7.594075439453125,0.7374088764190674,-6.280623435974121,7.49532413482666
1657787300583075300,7.604075439453125,0.6132885813713074,-6.708693981170654,7.126525402069092
1657787300593075500,7.614075439453125,0.4691968858242035,-7.09804630279541,6.7503767013549805
1657787300603075300,7.624075439453125,0.305952787399292,-7.448736667633057,6.371245861053467
1657787300613075200,7.6340751953125,0.12690846621990204,-7.765570640563965,5.987489223480225
1657787300623075300,7.644075439453125,-0.06552198529243469,-8.051093101501465,5.598725318908691
1657787300633075500,7.654075439453125,-0.2660539150238037,-8.305596351623535,5.207321643829346
1657787300643075300,7.664075439453125,-0.4690735638141632,-8.529380798339844,4.816601753234863
1657787300653075500,7.674075439453125,-0.6685299873352051,-8.721253395080566,4.4342803955078125
1657787300663075300,7.684075439453125,-0.8566027879714966,-8.878454208374023,4.075442314147949
1657787300673075500,7.694075439453125,-1.0306705236434937,-9.003544807434082,3.747514247894287
1657787300683075300,7.704075439453125,-1.187946081161499,-9.099482536315918,3.4580681324005127
1657787300693075700,7.71407568359375,-1.3227134943008423,-9.169346809387207,3.2161543369293213
1657787300703075800,7.724075927734375,-1.4357237815856934,-9.220186233520508,3.0161187648773193
1657787300713075700,7.73407568359375,-1.5252310037612915,-9.257599830627441,2.8531947135925293
1657787300723076000,7.744076171875,-1.5889778137207031,-9.286334037780762,2.7219598293304443
1657787300733076000,7.754075927734375,-1.6340590715408325,-9.310604095458984,2.6100566387176514
1657787300743076000,7.764076171875,-1.6652956008911133,-9.332723617553711,2.5093753337860107
1657787300753076500,7.774076416015625,-1.6846020221710205,-9.354053497314453,2.4153525829315186
1657787300763076000,7.784076171875,-1.6957485675811768,-9.374908447265625,2.324957847595215
1657787300773076000,7.794075927734375,-1.6997119188308716,-9.39566421508789,2.236649751663208
1657787300783076000,7.804076171875,-1.6959104537963867,-9.416614532470703,2.1496829986572266
1657787300793076000,7.814075927734375,-1.6812515258789062,-9.438252449035645,2.0646116733551025
1657787300803076000,7.824076171875,-1.655706524848938,-9.459951400756836,1.9844833612442017
1657787300813076000,7.834075927734375,-1.6183745861053467,-9.480682373046875,1.9151103496551514
1657787300823076000,7.844076171875,-1.5706877708435059,-9.499017715454102,1.8631865978240967
1657787300833075700,7.85407568359375,-1.5195786952972412,-9.514233589172363,1.8276605606079102
1657787300843075800,7.864075927734375,-1.471169114112854,-9.525604248046875,1.8079442977905273
1657787300853076000,7.874075927734375,-1.4326342344284058,-9.53203010559082,1.8049845695495605
1657787300863075800,7.884075927734375,-1.4045158624649048,-9.534292221069336,1.8150290250778198
1657787300873075700,7.89407568359375,-1.38370680809021,-9.53327751159668,1.8363360166549683
1657787300883074800,7.90407470703125,-1.3630398511886597,-9.529667854309082,1.8701316118240356
1657787300893074700,7.91407470703125,-1.3345359563827515,-9.52443790435791,1.9167882204055786
1657787300903074800,7.92407470703125,-1.2907938957214355,-9.518016815185547,1.9776508808135986
1657787300913075000,7.934074951171875,-1.2216581106185913,-9.511154174804688,2.0530929565429688
1657787300923074800,7.94407470703125,-1.125593662261963,-9.50354290008545,2.141441822052002
1657787300933074700,7.95407470703125,-1.0017019510269165,-9.493292808532715,2.2458384037017822
1657787300943074800,7.96407470703125,-0.8497434258460999,-9.47590160369873,2.3780672550201416
1657787300953074700,7.97407470703125,-0.6790121793746948,-9.446038246154785,2.5458226203918457
1657787300963074600,7.984074462890625,-0.4982184171676636,-9.398263931274414,2.755812406539917
1657787300973074700,7.99407470703125,-0.31746846437454224,-9.326085090637207,3.015537738800049
1657787300983074800,8.00407470703125,-0.1473001092672348,-9.2272310256958,3.3176138401031494
1657787300993074700,8.01407470703125,0.006041033659130335,-9.099377632141113,3.6566901206970215
1657787301003074600,8.024074462890624,0.13844342529773712,-8.93936538696289,4.029732704162598
1657787301013074700,8.03407470703125,0.2523795962333679,-8.748252868652344,4.424293518066406
1657787301023073800,8.04407373046875,0.35116028785705566,-8.526253700256348,4.832176685333252
1657787301033073700,8.05407373046875,0.4383656978607178,-8.272582054138184,5.24807596206665
1657787301043073800,8.06407373046875,0.5167442560195923,-7.989232540130615,5.663484573364258
1657787301053074000,8.074073974609375,0.587448000907898,-7.677537441253662,6.072900772094727
1657787301063074000,8.084073974609375,0.6533984541893005,-7.338204860687256,6.472559452056885
1657787301073074000,8.094073974609374,0.7163420915603638,-6.973392486572266,6.857754230499268
1657787301083073800,8.10407373046875,0.7779267430305481,-6.585071563720703,7.2250776290893555
1657787301093073700,8.11407373046875,0.8398831486701965,-6.175262928009033,7.571710586547852
1657787301103073800,8.12407373046875,0.9013625979423523,-5.746486186981201,7.8952765464782715
1657787301113073700,8.13407373046875,0.9603221416473389,-5.300499439239502,8.194663047790527
1657787301123073500,8.144073486328125,1.0160820484161377,-4.839715003967285,8.468475341796875
1657787301133074000,8.154073974609375,1.0672826766967773,-4.365371227264404,8.716336250305176
1657787301143073800,8.16407373046875,1.1121429204940796,-3.8785033226013184,8.938135147094727
1657787301153073700,8.17407373046875,1.1469371318817139,-3.3810670375823975,9.133623123168945
1657787301163073500,8.184073486328124,1.1714818477630615,-2.875077962875366,9.30223560333252
1657787301173073700,8.19407373046875,1.1841951608657837,-2.3626935482025146,9.443803787231445
1657787301183074600,8.204074462890626,1.182417631149292,-1.846693515777588,9.558334350585938
1657787301193074400,8.214074462890625,1.1662088632583618,-1.3301305770874023,9.64576530456543
1657787301203074300,8.22407421875,1.1375374794006348,-0.8167830109596252,9.706135749816895
1657787301213074400,8.234074462890625,1.1002724170684814,-0.3116791248321533,9.73973560333252
1657787301223074600,8.244074462890625,1.0592799186706543,0.18245986104011536,9.747559547424316
1657787301233074400,8.254074462890625,1.0185761451721191,0.6613624095916748,9.731146812438965
1657787301243074600,8.264074462890624,0.9833002686500549,1.1217676401138306,9.692513465881348
1657787301253074400,8.274074462890624,0.9541010856628418,1.558784008026123,9.634828567504883
1657787301263074600,8.284074462890626,0.9305857419967651,1.9732729196548462,9.560873031616211
1657787301273074400,8.294074462890626,0.9127794504165649,2.3653030395507812,9.47323989868164
1657787301283074800,8.30407470703125,0.9039695262908936,2.734598398208618,9.374162673950195
1657787301293075000,8.314074951171875,0.9043191075325012,3.0869641304016113,9.264081954956055
1657787301303074800,8.32407470703125,0.913612961769104,3.42468523979187,9.143681526184082
1657787301313075200,8.3340751953125,0.9340882301330566,3.746833324432373,9.014360427856445
1657787301323076000,8.344076171875,0.9610656499862671,4.05344820022583,8.877845764160156
1657787301333075700,8.35407568359375,0.9875929951667786,4.341383934020996,8.737695693969727
1657787301343075800,8.364075927734374,1.0028882026672363,4.605702877044678,8.599520683288574
1657787301353075700,8.37407568359375,0.9988064765930176,4.847567081451416,8.466026306152344
1657787301363075600,8.38407568359375,0.970892608165741,5.071622848510742,8.33703327178955
1657787301373075700,8.39407568359375,0.9170038104057312,5.271934986114502,8.218021392822266
1657787301383075000,8.404074951171875,0.8432067632675171,5.471530437469482,8.094534873962402
1657787301393075000,8.414074951171875,0.7531161308288574,5.66256856918335,7.9710869789123535
1657787301403074800,8.42407470703125,0.6471452116966248,5.835951328277588,7.854487419128418
1657787301413075200,8.4340751953125,0.5267939567565918,5.980875492095947,7.753828525543213
1657787301423075000,8.444074951171874,0.3958008289337158,6.083859443664551,7.681145191192627
1657787301433075200,8.4540751953125,0.2604331374168396,6.122961044311523,7.655821323394775
1657787301443075000,8.464074951171876,0.12793898582458496,6.093985080718994,7.682259559631348
1657787301453075200,8.4740751953125,0.007068038918077946,5.99647331237793,7.759658336639404
1657787301463075000,8.484074951171875,-0.09760873019695282,5.825119972229004,7.888514518737793
1657787301473075200,8.4940751953125,-0.17553076148033142,5.593289852142334,8.053218841552734
1657787301483075000,8.504074951171875,-0.2148556411266327,5.308846473693848,8.242559432983398
1657787301493075200,8.5140751953125,-0.19949088990688324,4.975160121917725,8.448566436767578
1657787301503075300,8.524075439453124,-0.1306505799293518,4.6013054847717285,8.659162521362305
1657787301513075200,8.5340751953125,-0.009100421331822872,4.188564777374268,8.867125511169434
1657787301523075000,8.544074951171876,0.1624181717634201,3.7324323654174805,9.067121505737305
1657787301533075200,8.5540751953125,0.3601391315460205,3.2343828678131104,9.25090217590332
1657787301543075300,8.564075439453125,0.5661930441856384,2.69073224067688,9.413264274597168
1657787301553075200,8.5740751953125,0.7619044184684753,2.0946173667907715,9.549982070922852
1657787301563075000,8.584074951171875,0.9273995161056519,1.4522600173950195,9.654067039489746
1657787301573075200,8.5940751953125,1.0517758131027222,0.7719413042068481,9.719464302062988
1657787301583074800,8.60407470703125,1.1271330118179321,0.06722425669431686,9.741416931152344
1657787301593074700,8.61407470703125,1.1613866090774536,-0.6406235694885254,9.716527938842773
1657787301603074600,8.624074462890626,1.1629163026809692,-1.3338724374771118,9.645655632019043
1657787301613074200,8.63407421875,1.1383885145187378,-1.9967586994171143,9.533464431762695
1657787301623074300,8.64407421875,1.0976275205612183,-2.623192548751831,9.38532543182373
1657787301633074200,8.65407421875,1.0426894426345825,-3.207542896270752,9.208392143249512
1657787301643074000,8.664073974609375,0.9698615074157715,-3.752793788909912,9.008116722106934
1657787301653074200,8.67407421875,0.8789426684379578,-4.274311542510986,8.78223705291748
1657787301663074300,8.68407421875,0.7705150246620178,-4.782824993133545,8.52648639678955
1657787301673074200,8.69407421875,0.6449673175811768,-5.2865214347839355,8.234478950500488
1657787301683075000,8.704074951171876,0.5059364438056946,-5.781278133392334,7.9051337242126465
1657787301693075200,8.7140751953125,0.3588648736476898,-6.2581095695495605,7.541703701019287
1657787301703075000,8.724074951171875,0.20882102847099304,-6.705911159515381,7.152440071105957
1657787301713075200,8.7340751953125,0.05770575627684593,-7.116468906402588,6.747044086456299
1657787301723074000,8.744073974609375,-0.0961667150259018,-7.482123374938965,6.338650703430176
1657787301733074200,8.75407421875,-0.25755321979522705,-7.798061847686768,5.940864086151123
1657787301743074000,8.764073974609374,-0.4276847243309021,-8.06117057800293,5.568187236785889
1657787301753074200,8.77407421875,-0.6045300960540771,-8.277673721313477,5.2234673500061035
1657787301763074000,8.784073974609376,-0.7821159958839417,-8.4523344039917,4.91085147857666
1657787301773074000,8.794073974609375,-0.9505839943885803,-8.587078094482422,4.6398773193359375
1657787301783073500,8.804073486328125,-1.103613018989563,-8.690738677978516,4.407189846038818
1657787301793073400,8.814073486328125,-1.2343472242355347,-8.77182388305664,4.207326889038086
1657787301803073500,8.824073486328125,-1.3346984386444092,-8.837333679199219,4.036064147949219
1657787301813073400,8.834073486328125,-1.408020257949829,-8.89438247680664,3.882969856262207
1657787301823073500,8.844073486328124,-1.4557760953903198,-8.946678161621094,3.7426791191101074
1657787301833074200,8.85407421875,-1.4770859479904175,-8.996719360351562,3.6120686531066895
1657787301843074300,8.86407421875,-1.4781252145767212,-9.046192169189453,3.4859280586242676
1657787301853074400,8.874074462890626,-1.4609253406524658,-9.095592498779297,3.36242413520813
1657787301863074300,8.88407421875,-1.4261442422866821,-9.14477825164795,3.241741418838501
1657787301873074200,8.89407421875,-1.380083680152893,-9.192920684814453,3.123392105102539
1657787301883074300,8.90407421875,-1.325373888015747,-9.239191055297852,3.0084521770477295
1657787301893074400,8.914074462890625,-1.2627257108688354,-9.282204627990723,2.9010872840881348
1657787301903074600,8.924074462890625,-1.195185899734497,-9.321510314941406,2.8019864559173584
1657787301913074400,8.934074462890624,-1.1240744590759277,-9.356974601745605,2.7117631435394287
1657787301923074600,8.944074462890624,-1.0505790710449219,-9.38785457611084,2.6333365440368652
1657787301933075000,8.954074951171876,-0.9776952862739563,-9.413886070251465,2.567615032196045
1657787301943074800,8.96407470703125,-0.9071870446205139,-9.434745788574219,2.5164806842803955
1657787301953075200,8.9740751953125,-0.8412535786628723,-9.449347496032715,2.484408140182495
1657787301963075300,8.984075439453125,-0.7823740839958191,-9.457995414733887,2.4706554412841797
1657787301973075000,8.994074951171875,-0.7314268946647644,-9.461052894592285,2.474579334259033
1657787301983074800,9.00407470703125,-0.6842831373214722,-9.459366798400879,2.494433879852295
1657787301993075000,9.014074951171875,-0.6324594020843506,-9.454806327819824,2.5251991748809814
1657787302003075000,9.024074951171874,-0.5699471235275269,-9.446642875671387,2.570239543914795
1657787302013075000,9.034074951171876,-0.49228668212890625,-9.431867599487305,2.639627456665039
1657787302023075800,9.044075927734376,-0.40479397773742676,-9.407129287719727,2.740849494934082
1657787302033075700,9.05407568359375,-0.3124345541000366,-9.368206024169922,2.882563829421997
1657787302043075800,9.064075927734375,-0.22257746756076813,-9.310595512390137,3.07138991355896
1657787302053076000,9.074075927734375,-0.13802315294742584,-9.23496150970459,3.2964253425598145
1657787302063075800,9.084075927734375,-0.05953209474682808,-9.141809463500977,3.548797607421875
1657787302073076000,9.094075927734375,0.013111703097820282,-9.03085994720459,3.822756052017212
1657787302083076400,9.104076416015625,0.08047784864902496,-8.904072761535645,4.108641147613525
1657787302093076500,9.114076416015624,0.14230243861675262,-8.762152671813965,4.401638031005859
1657787302103076400,9.124076416015624,0.19955986738204956,-8.60529613494873,4.698838710784912
1657787302113076500,9.134076416015626,0.25343817472457886,-8.433749198913574,4.997779369354248
1657787302123076400,9.144076416015626,0.30357787013053894,-8.246228218078613,5.298818588256836
1657787302133075700,9.15407568359375,0.3482902944087982,-8.039499282836914,5.604930400848389
1657787302143075600,9.16407568359375,0.38506314158439636,-7.813011169433594,5.914278030395508
1657787302153075700,9.17407568359375,0.41260698437690735,-7.566134929656982,6.225217819213867
1657787302163075600,9.18407568359375,0.4340367317199707,-7.29761266708374,6.536545753479004
1657787302173076000,9.194075927734374,0.4546826481819153,-7.00797700881958,6.844829559326172
1657787302183075800,9.204075927734374,0.4815303087234497,-6.697248458862305,7.14738655090332
1657787302193076000,9.214075927734376,0.5204027891159058,-6.366119861602783,7.441218852996826
1657787302203075800,9.224075927734376,0.5774632096290588,-6.015028476715088,7.723728656768799
1657787302213076000,9.234075927734375,0.6517390012741089,-5.646263599395752,7.991557598114014
1657787302223075800,9.244075927734375,0.7422147989273071,-5.261600017547607,8.242255210876465
1657787302233076000,9.254075927734375,0.8483709692955017,-4.861446857452393,8.474468231201172
1657787302243075800,9.264075927734375,0.96418696641922,-4.4471540451049805,8.686967849731445
1657787302253075700,9.27407568359375,1.0832915306091309,-4.01903772354126,8.879417419433594
1657787302263075600,9.28407568359375,1.200971007347107,-3.5773050785064697,9.05155086517334
1657787302273076000,9.294075927734376,1.3134411573410034,-3.1236908435821533,9.202593803405762
1657787302283075800,9.304075927734376,1.4182289838790894,-2.66117262840271,9.331506729125977
1657787302293076000,9.314075927734375,1.5122745037078857,-2.1937003135681152,9.437732696533203
1657787302303075800,9.324075927734375,1.595441460609436,-1.7253880500793457,9.520907402038574
1657787302313076000,9.334075927734375,1.6667852401733398,-1.2608343362808228,9.581351280212402
1657787302323075800,9.344075927734375,1.726568341255188,-0.8037079572677612,9.619941711425781
1657787302333076000,9.354075927734375,1.7763123512268066,-0.3541806638240814,9.637916564941406
1657787302343075800,9.364075927734374,1.8165075778961182,0.08555325865745544,9.636548042297363
1657787302353076000,9.374075927734374,1.8459581136703491,0.511093258857727,9.61776065826416
1657787302363075800,9.384075927734376,1.8651801347732544,0.9214103817939758,9.58343505859375
1657787302373076000,9.394075927734375,1.8741052150726318,1.313183069229126,9.53590202331543
1657787302383075800,9.404075927734375,1.874017596244812,1.6826316118240356,9.477705955505371
1657787302393076000,9.414075927734375,1.865495204925537,2.031877279281616,9.410707473754883
1657787302403075800,9.424075927734375,1.8475924730300903,2.3619322776794434,9.336912155151367
1657787302413076000,9.434075927734375,1.8187094926834106,2.671640396118164,9.258774757385254
1657787302423075800,9.444075927734374,1.7776888608932495,2.9624826908111572,9.17788314819336
1657787302433076000,9.454075927734374,1.7241350412368774,3.2345004081726074,9.095903396606445
1657787302443075800,9.464075927734376,1.6587930917739868,3.4852991104125977,9.015060424804688
1657787302453076000,9.474075927734376,1.588952660560608,3.7139408588409424,8.935995101928711
1657787302463075800,9.484075927734375,1.520418643951416,3.915828227996826,8.861422538757324
1657787302473075500,9.494075439453125,1.4612404108047485,4.080863952636719,8.79666805267334
1657787302483075600,9.50407568359375,1.4154764413833618,4.208054542541504,8.74407958984375
1657787302493075500,9.514075439453125,1.3817816972732544,4.294863700866699,8.707180976867676
1657787302503075600,9.52407568359375,1.3581143617630005,4.335747241973877,8.690629005432129
1657787302513075500,9.534075439453124,1.341755986213684,4.335781097412109,8.693147659301758
1657787302523075600,9.54407568359375,1.3325690031051636,4.294919013977051,8.714808464050293
1657787302591640300,9.612640380859375,0.2468336671590805,-7.773289203643799,5.973690509796143
1657787302601641200,9.62264111328125,0.11318857222795486,-8.053112983703613,5.595050811767578
1657787302611641300,9.632641357421875,-0.018840601667761803,-8.306079864501953,5.21331787109375
1657787302621640700,9.642640625,-0.1468336582183838,-8.532546997070312,4.831571102142334
1657787302631640600,9.652640625,-0.26748013496398926,-8.730347633361816,4.458668231964111
1657787302641640400,9.662640380859376,-0.3756108582019806,-8.895293235778809,4.11129093170166
1657787302651640300,9.672640380859375,-0.4690054655075073,-9.028122901916504,3.800407648086548
1657787302661640200,9.68264013671875,-0.5453057289123535,-9.130255699157715,3.5370965003967285
1657787302671638300,9.69263818359375,-0.6024997234344482,-9.203505516052246,3.332061767578125
1657787302681638100,9.70263818359375,-0.6421791315078735,-9.25551986694336,3.1769466400146484
1657787302691638300,9.71263818359375,-0.6628580689430237,-9.291637420654297,3.0653111934661865
1657787302701638100,9.72263818359375,-0.6610071659088135,-9.316391944885254,2.989652395248413
1657787302711638000,9.732637939453125,-0.639278769493103,-9.336795806884766,2.930129051208496
1657787302721638000,9.742637939453125,-0.5985036492347717,-9.357244491577148,2.8729448318481445
1657787302731638000,9.752637939453125,-0.5399208068847656,-9.38054084777832,2.807818651199341
1657787302741638000,9.762637939453125,-0.4700354039669037,-9.407230377197266,2.7300469875335693
1657787302751638000,9.772637939453125,-0.3939952254295349,-9.436660766601562,2.639012336730957
1657787302761638000,9.782637939453124,-0.31885436177253723,-9.466645240783691,2.5398666858673096
1657787302771638000,9.792637939453124,-0.2506164014339447,-9.494470596313477,2.4417505264282227
1657787302781638000,9.802637939453126,-0.1929284632205963,-9.51809310913086,2.35345458984375
1657787302791637800,9.8126376953125,-0.14892566204071045,-9.535602569580078,2.2847793102264404
1657787302801638000,9.822637939453125,-0.1164751946926117,-9.547243118286133,2.2375452518463135
1657787302811639000,9.83263916015625,-0.09300298988819122,-9.553224563598633,2.2129969596862793
1657787304649910800,11.670910888671875,1.7962843179702759,-4.190593719482422,8.68231201171875
1657787304659915800,11.680915771484376,1.7495213747024536,-4.642192363739014,8.459278106689453
1657787304669915600,11.69091552734375,1.6986241340637207,-5.085659503936768,8.211019515991211
1657787304679916300,11.700916259765625,1.6448805332183838,-5.514622211456299,7.940622806549072
1657787304689916200,11.710916259765625,1.588938593864441,-5.923985481262207,7.651908874511719
1657787304699916300,11.720916259765625,1.5310951471328735,-6.3103532791137695,7.348834991455078
1657787304709916200,11.730916259765625,1.471301555633545,-6.676316738128662,7.030816078186035
1657787304719916300,11.740916259765624,1.4022853374481201,-7.026971817016602,6.695169925689697
1657787304729916400,11.75091650390625,1.3141791820526123,-7.36391544342041,6.341593265533447
1657787304739916300,11.760916259765626,1.2050988674163818,-7.68351936340332,5.973382949829102
1657787304749916400,11.77091650390625,1.0772148370742798,-7.981169700622559,5.595602512359619
1657787304759916500,11.78091650390625,0.9326745271682739,-8.2526216506958,5.214846611022949
1657787304769916400,11.79091650390625,0.7744710445404053,-8.492120742797852,4.842944145202637
1657787304779916500,11.80091650390625,0.6087982654571533,-8.698592185974121,4.487093925476074
1657787304789916400,11.81091650390625,0.43960607051849365,-8.871969223022461,4.155116081237793
1657787304799916500,11.82091650390625,0.2716679573059082,-9.012368202209473,3.8566317558288574
1657787304809916700,11.830916748046874,0.1074666902422905,-9.125185012817383,3.5901834964752197
1657787304819916500,11.84091650390625,-0.050955697894096375,-9.213785171508789,3.357600212097168
1657787304829916700,11.850916748046876,-0.1977158486843109,-9.280753135681152,3.1620237827301025
1657787304839916500,11.86091650390625,-0.3304065465927124,-9.331486701965332,2.9973814487457275
1657787304849916700,11.870916748046875,-0.4450266361236572,-9.37035846710205,2.8580362796783447
1657787304859916500,11.88091650390625,-0.5341162085533142,-9.40161418914795,2.7375686168670654
1657787304869916700,11.890916748046875,-0.5973691344261169,-9.429380416870117,2.626789093017578
1657787304879916800,11.900916748046875,-0.634117841720581,-9.456206321716309,2.5195302963256836
1657787304889916700,11.910916748046875,-0.6428720951080322,-9.483331680297852,2.413128137588501
1657787304899916800,11.920916748046874,-0.6306554079055786,-9.51014518737793,2.308579683303833
1657787304909916700,11.930916748046876,-0.6022394895553589,-9.535333633422852,2.210204839706421
1657787304919916800,11.940916748046876,-0.5608657002449036,-9.556755065917969,2.1269426345825195
1657787304929917000,11.9509169921875,-0.512384295463562,-9.573546409606934,2.0627198219299316
1657787304939916800,11.960916748046875,-0.46019110083580017,-9.585139274597168,2.020761251449585
1657787304949917000,11.9709169921875,-0.4089835286140442,-9.591029167175293,2.003723621368408
1657787304959916800,11.980916748046875,-0.36259931325912476,-9.59249496459961,2.0056371688842773
1657787304969917000,11.9909169921875,-0.32172495126724243,-9.590164184570312,2.0236761569976807
1657787304979916800,12.000916748046874,-0.28400230407714844,-9.584187507629395,2.057380199432373
1657787304989917000,12.0109169921875,-0.24299627542495728,-9.575728416442871,2.101590394973755
1657787304999917000,12.0209169921875,-0.19277320802211761,-9.56544017791748,2.1529452800750732
1657787305009917000,12.0309169921875,-0.12837788462638855,-9.552986145019531,2.212277412414551
1657787305019917000,12.0409169921875,-0.051144424825906754,-9.536659240722656,2.2846806049346924
1657787305029917000,12.0509169921875,0.03743899241089821,-9.513779640197754,2.378387928009033
1657787305039917000,12.0609169921875,0.13647855818271637,-9.479527473449707,2.508044958114624
1657787305049917000,12.0709169921875,0.24104849994182587,-9.430590629577637,2.678772449493408
1657787305059916800,12.080916748046874,0.34721434116363525,-9.363330841064453,2.8943963050842285
1657787305069917000,12.0909169921875,0.4505345821380615,-9.27337646484375,3.1577658653259277
1657787305079917000,12.1009169921875,0.5460129976272583,-9.161376953125,3.4555938243865967
1657787305089917000,12.1109169921875,0.6303919553756714,-9.02722454071045,3.7791690826416016
1657787305099916800,12.120916748046875,0.7019082307815552,-8.870392799377441,4.122312068939209
1657787305109917000,12.1309169921875,0.7617419362068176,-8.692770957946777,4.474983215332031
1657787305119916800,12.140916748046875,0.8111124038696289,-8.495473861694336,4.8310441970825195
1657787305129917000,12.1509169921875,0.8529706001281738,-8.279402732849121,5.18594217300415
1657787305139916800,12.160916748046875,0.8898022174835205,-8.046147346496582,5.535141468048096
1657787305149917000,12.1709169921875,0.9235638976097107,-7.796174049377441,5.876814365386963
1657787305159916800,12.180916748046876,0.9587743282318115,-7.528601169586182,6.210566997528076
1657787305169917000,12.1909169921875,0.997688889503479,-7.243315696716309,6.535238265991211
1657787305179916800,12.200916748046875,1.04413640499115,-6.938859939575195,6.85069465637207
1657787305189917000,12.2109169921875,1.102099061012268,-6.612958908081055,7.157100677490234
1657787305199916800,12.220916748046875,1.1713403463363647,-6.26497220993042,7.45305871963501
1657787305209917000,12.2309169921875,1.2505942583084106,-5.893828868865967,7.737498760223389
1657787305219916800,12.240916748046875,1.3372935056686401,-5.498973369598389,8.008929252624512
1657787305229917000,12.2509169921875,1.4247429370880127,-5.081577301025391,8.265462875366211
1657787305239916800,12.260916748046874,1.5022183656692505,-4.647942066192627,8.50352668762207
1657787305249917000,12.2709169921875,1.560064435005188,-4.207589626312256,8.71965503692627
1657787305259916800,12.280916748046875,1.5842747688293457,-3.769313335418701,8.913606643676758
1657787305269916700,12.290916748046875,1.5714362859725952,-3.3356144428253174,9.087038040161133
1657787305279916800,12.300916748046875,1.522728681564331,-2.907733917236328,9.241025924682617
1657787305289916700,12.310916748046875,1.4457231760025024,-2.4871349334716797,9.3751802444458
1657787305299916800,12.320916748046875,1.355704426765442,-2.0727882385253906,9.488710403442383
1657787305309916700,12.330916748046874,1.2660417556762695,-1.662875771522522,9.581348419189453
1657787305319916800,12.340916748046874,1.1872837543487549,-1.2558324337005615,9.653154373168945
1657787305329916700,12.350916748046876,1.123725175857544,-0.8509613275527954,9.70479965209961
1657787305339916800,12.360916748046876,1.0794354677200317,-0.44966626167297363,9.736671447753906
1657787305349916700,12.370916748046875,1.059352993965149,-0.056085169315338135,9.749095916748047
1657787305359916800,12.380916748046875,1.0621802806854248,0.32753947377204895,9.743439674377441
1657787305369916700,12.390916748046875,1.0869301557540894,0.6972574591636658,9.721235275268555
1657787305379916800,12.400916748046875,1.1337953805923462,1.0479001998901367,9.684335708618164
1657787305389916700,12.410916748046875,1.1962988376617432,1.378233790397644,9.635315895080566
1657787305399916800,12.420916748046874,1.2684119939804077,1.686226487159729,9.576947212219238
1657787305409917000,12.4309169921875,1.3433938026428223,1.9670358896255493,9.512957572937012
1657787305419916800,12.440916748046876,1.4144091606140137,2.2216711044311523,9.44636058807373
1657787305429917000,12.4509169921875,1.4782073497772217,2.448413848876953,9.380313873291016
1657787305439916800,12.460916748046875,1.531802773475647,2.6398849487304688,9.31957721710205
1657787305449916700,12.470916748046875,1.5775913000106812,2.806401252746582,9.263123512268066
1657787305459916800,12.480916748046875,1.6174404621124268,2.945038080215454,9.213069915771484
1657787305469916700,12.490916748046875,1.6542372703552246,3.0519957542419434,9.171643257141113
1657787305479916800,12.500916748046874,1.6920920610427856,3.130364418029785,9.138254165649414
1657787305489916400,12.51091650390625,1.730923056602478,3.1799087524414062,9.113842964172363
1657787305499916300,12.520916259765626,1.7735732793807983,3.193833589553833,9.100763320922852
1657787305509916400,12.53091650390625,1.8246774673461914,3.1727988719940186,9.098031044006348
1657787305519916300,12.540916259765625,1.889139175415039,3.113165855407715,9.105461120605469
1657787305529916400,12.55091650390625,1.971889853477478,3.0051910877227783,9.124180793762207
1657787305539916300,12.560916259765625,2.069711923599243,2.8501479625701904,9.152215003967285
1657787305549916400,12.57091650390625,2.176680564880371,2.642101526260376,9.189750671386719
1657787305559916300,12.580916259765624,2.2836616039276123,2.3679864406585693,9.238373756408691
1657787305569916400,12.59091650390625,2.380484104156494,2.037618398666382,9.292546272277832
1657787305579916300,12.600916259765626,2.4609570503234863,1.6602139472961426,9.34652328491211
1657787305589916400,12.61091650390625,2.5249621868133545,1.2444980144500732,9.393932342529297
1657787305599916300,12.620916259765625,2.5758512020111084,0.8073612451553345,9.42779541015625
1657787305609916400,12.63091650390625,2.617297410964966,0.35537880659103394,9.444243431091309
1657787305619916300,12.640916259765625,2.6526596546173096,-0.11117372661828995,9.440398216247559
1657787305629916400,12.65091650390625,2.6820056438446045,-0.5895552039146423,9.414322853088379
1657787305639916500,12.66091650390625,2.7013967037200928,-1.0787924528121948,9.365304946899414
1657787305649916400,12.67091650390625,2.7045390605926514,-1.578734040260315,9.293177604675293
1657787305659916300,12.680916259765626,2.686202049255371,-2.084925413131714,9.198236465454102
1657787305669916400,12.69091650390625,2.6398751735687256,-2.5937089920043945,9.081507682800293
1657787305679916500,12.70091650390625,2.562629461288452,-3.1018311977386475,8.943249702453613
1657787305689916400,12.71091650390625,2.4524049758911133,-3.6065924167633057,8.783409118652344
1657787305699916300,12.720916259765625,2.3164749145507812,-4.104274749755859,8.599943161010742
1657787305709916400,12.73091650390625,2.161071538925171,-4.590787887573242,8.391938209533691
1657787305719916500,12.74091650390625,1.9929324388504028,-5.062238693237305,8.159173965454102
1657787305729916400,12.75091650390625,1.8180056810379028,-5.514793395996094,7.902663707733154
1657787305739916500,12.76091650390625,1.6419553756713867,-5.945071697235107,7.6243205070495605
1657787305749916400,12.77091650390625,1.4720664024353027,-6.34814453125,7.328322887420654
1657787305759916500,12.78091650390625,1.3133388757705688,-6.721070289611816,7.019423961639404
1657787305769916400,12.79091650390625,1.172057867050171,-7.059567928314209,6.705150127410889
1657787305779916500,12.80091650390625,1.055092453956604,-7.357810974121094,6.396838188171387
1657787305789917000,12.8109169921875,0.9607844948768616,-7.617375373840332,6.101036071777344
1657787305799916800,12.820916748046875,0.8871241807937622,-7.838533878326416,5.825855731964111
1657787305809917000,12.8309169921875,0.8306763172149658,-8.02129077911377,5.5802483558654785
1657787305819916800,12.840916748046874,0.7856482863426208,-8.173892974853516,5.361002445220947
1657787305829917000,12.8509169921875,0.7507271766662598,-8.30203914642334,5.165518760681152
1657787305839916800,12.860916748046876,0.7264639735221863,-8.408226013183594,4.994414806365967
1657787305849917000,12.8709169921875,0.7108739018440247,-8.497166633605957,4.8438401222229
1657787305859916800,12.880916748046875,0.7027908563613892,-8.571846008300781,4.711627960205078
1657787305869917000,12.8909169921875,0.6997840404510498,-8.635990142822266,4.593476295471191
1657787305879916800,12.900916748046875,0.6993325352668762,-8.69503116607666,4.480807304382324
1657787305889917000,12.9109169921875,0.6984089612960815,-8.752002716064453,4.3686203956604
1657787305893851600,12.9148515625,2.7324094772338867,0.47814854979515076,9.406144142150879
1657787305903851800,12.924851806640625,2.768065929412842,0.8635861277580261,9.368144989013672
1657787305913852000,12.934851806640625,2.8007442951202393,1.2253013849258423,9.317972183227539
1657787305923851800,12.944851806640624,2.831444025039673,1.5611075162887573,9.25829029083252
1657787305933852000,12.954851806640624,2.8586995601654053,1.875495195388794,9.191326141357422
1657787305943851800,12.964851806640626,2.8816256523132324,2.1695950031280518,9.119176864624023
1657787305953852000,12.974851806640626,2.8995630741119385,2.4414849281311035,9.04443359375
1657787305963851800,12.984851806640625,2.91430926322937,2.6914453506469727,8.968451499938965
1657787305973852000,12.994851806640625,2.927251100540161,2.9089696407318115,8.896029472351074
1657787305983851800,13.004851806640625,2.9368395805358887,3.107635498046875,8.82540225982666
1657787305993852000,13.014851806640625,2.9403393268585205,3.2806291580200195,8.761396408081055
1657787306003851800,13.024851806640624,2.9360768795013428,3.4280545711517334,8.706212997436523
1657787306013852000,13.034851806640624,2.9250359535217285,3.5441529750823975,8.663329124450684
1657787306023851800,13.044851806640626,2.9122049808502197,3.6280877590179443,8.632850646972656
1657787306033852000,13.054851806640626,2.9008636474609375,3.6764919757843018,8.616172790527344
1657787306043851800,13.064851806640625,2.8903229236602783,3.6879067420959473,8.614842414855957
1657787306053852000,13.074851806640625,2.8809494972229004,3.6558852195739746,8.631613731384277
1657787306063851800,13.084851806640625,2.8723604679107666,3.585190534591675,8.664073944091797
1657787306073852000,13.094851806640625,2.863675117492676,3.4754865169525146,8.711514472961426
1657787306083851800,13.104851806640625,2.8593804836273193,3.3174078464508057,8.774335861206055
1657787306093851600,13.1148515625,2.864790439605713,3.111095905303955,8.847833633422852
1657787306103851800,13.124851806640624,2.8822803497314453,2.8511838912963867,8.929349899291992
1657787306113852000,13.134851806640626,2.9136855602264404,2.52968168258667,9.01562213897705
1657787306123853000,13.14485302734375,2.955247402191162,2.1564550399780273,9.098701477050781
1657787306133853000,13.15485302734375,2.9997828006744385,1.7387256622314453,9.173243522644043
1657787306143853000,13.16485302734375,3.0405900478363037,1.283332347869873,9.234611511230469
1657787306153853000,13.17485302734375,3.0687313079833984,0.8051683902740479,9.279273986816406
1657787306163852800,13.184852783203125,3.0785903930664062,0.31327304244041443,9.305603981018066
1657787306173853000,13.19485302734375,3.0675532817840576,-0.1834019273519516,9.312710762023926
1657787306183853000,13.20485302734375,3.0370945930480957,-0.676703929901123,9.299905776977539
1657787306193853000,13.21485302734375,2.987990140914917,-1.1612989902496338,9.2678804397583
1657787306203853000,13.22485302734375,2.9187276363372803,-1.630634069442749,9.219121932983398
1657787306213853000,13.23485302734375,2.8324761390686035,-2.082505702972412,9.154803276062012
1657787306223853000,13.24485302734375,2.7323756217956543,-2.5170061588287354,9.075733184814453
1657787306233853000,13.25485302734375,2.6206419467926025,-2.934844732284546,8.982711791992188
1657787306243853000,13.26485302734375,2.5044331550598145,-3.342026948928833,8.872918128967285
1657787306253853000,13.27485302734375,2.38889479637146,-3.7435193061828613,8.7435302734375
1657787306263853000,13.28485302734375,2.276963472366333,-4.143054485321045,8.591896057128906
1657787306273853000,13.29485302734375,2.1686716079711914,-4.542966365814209,8.415973663330078
1657787306283853000,13.30485302734375,2.062544584274292,-4.942605018615723,8.215027809143066
1657787306293853000,13.31485302734375,1.956190824508667,-5.339104652404785,7.989837646484375
1657787306303853000,13.32485302734375,1.8469816446304321,-5.726552963256836,7.743729591369629
1657787306313853000,13.33485302734375,1.7332617044448853,-6.099494934082031,7.480781555175781
1657787306323853000,13.34485302734375,1.6164813041687012,-6.452200412750244,7.205994129180908
1657787306333853000,13.35485302734375,1.4996254444122314,-6.781567573547363,6.9232587814331055
1657787306343853000,13.36485302734375,1.3851128816604614,-7.085010528564453,6.63734245300293
1657787306353853000,13.37485302734375,1.2767285108566284,-7.360559940338135,6.353133678436279
1657787306363853000,13.38485302734375,1.1747381687164307,-7.6106276512146,6.071930885314941
1657787306373853000,13.39485302734375,1.0783674716949463,-7.837192535400391,5.795307636260986
1657787306383853000,13.40485302734375,0.9877467155456543,-8.041528701782227,5.525236129760742
1657787306393853000,13.41485302734375,0.9030135869979858,-8.227008819580078,5.260318279266357
1657787306403853000,13.42485302734375,0.825538694858551,-8.394155502319336,5.002676486968994
1657787306413853000,13.43485302734375,0.7570052742958069,-8.54157543182373,4.757993698120117
1657787306423851800,13.444851806640624,0.6993024349212646,-8.67033576965332,4.5283942222595215
1657787306433851600,13.4548515625,0.6539862155914307,-8.780802726745605,4.317401885986328
1657787306443851800,13.464851806640626,0.6250017881393433,-8.872188568115234,4.130815029144287
1657787306453851600,13.4748515625,0.6117936372756958,-8.947096824645996,3.9680328369140625
1657787306463851800,13.484851806640625,0.6149249076843262,-9.007135391235352,3.829284906387329
1657787306473851100,13.49485107421875,0.6372025012969971,-9.052962303161621,3.7158772945404053
1657787306483851300,13.504851318359375,0.6766355633735657,-9.088105201721191,3.62196683883667
1657787306493851100,13.51485107421875,0.731520414352417,-9.114920616149902,3.5430448055267334
1657787306503851300,13.524851318359374,0.7986261248588562,-9.136402130126953,3.4725282192230225
1657787306513851100,13.53485107421875,0.8771747946739197,-9.154945373535156,3.4040281772613525
1657787306523851300,13.544851318359376,0.9620172381401062,-9.17229175567627,3.333697557449341
1657787306533851100,13.55485107421875,1.0492831468582153,-9.189370155334473,3.2595369815826416
1657787306543851300,13.564851318359375,1.1356594562530518,-9.206326484680176,3.181769847869873
1657787306553851100,13.57485107421875,1.2178014516830444,-9.221540451049805,3.1064770221710205
1657787306563851300,13.584851318359375,1.2914665937423706,-9.233686447143555,3.039973497390747
1657787306573851100,13.59485107421875,1.3530761003494263,-9.241944313049316,2.9875879287719727
1657787306583851300,13.604851318359374,1.4030139446258545,-9.24687385559082,2.949043035507202
1657787306593851100,13.61485107421875,1.440717339515686,-9.24862003326416,2.925321340560913
1657787306603851300,13.624851318359376,1.465579628944397,-9.246743202209473,2.91888689994812
1657787306613851100,13.63485107421875,1.4811785221099854,-9.242169380187988,2.9255080223083496
1657787306623851300,13.644851318359375,1.4916399717330933,-9.23526668548584,2.941922187805176
1657787306633851100,13.65485107421875,1.5015575885772705,-9.224967002868652,2.9690632820129395
1657787306643851300,13.664851318359375,1.5125720500946045,-9.210789680480957,3.0072901248931885
1657787306653851100,13.67485107421875,1.5237866640090942,-9.191149711608887,3.06121826171875
1657787306663851300,13.684851318359375,1.5330902338027954,-9.162798881530762,3.1405181884765625
1657787306673851100,13.69485107421875,1.537891149520874,-9.124266624450684,3.248525857925415
1657787306683851300,13.704851318359376,1.5366487503051758,-9.073874473571777,3.38727068901062
1657787306693851100,13.71485107421875,1.5279189348220825,-9.008586883544922,3.5610406398773193
1657787306703851300,13.724851318359375,1.5130709409713745,-8.927660942077637,3.7653021812438965
1657787306713851100,13.73485107421875,1.4942840337753296,-8.829736709594727,3.996619939804077
1657787306723851300,13.744851318359375,1.4754350185394287,-8.712852478027344,4.251992225646973
1657787306733851100,13.75485107421875,1.461013674736023,-8.57829761505127,4.521986961364746
1657787306743851300,13.764851318359375,1.4542303085327148,-8.425729751586914,4.802359104156494
1657787306753851100,13.77485107421875,1.4591916799545288,-8.253419876098633,5.091362953186035
1657787306763851300,13.784851318359374,1.4747891426086426,-8.062167167663574,5.384852886199951
1657787306773851600,13.7948515625,1.5014228820800781,-7.851322174072266,5.680909156799316
1657787306783851800,13.804851806640626,1.5394272804260254,-7.619523525238037,5.978564739227295
1657787306793851600,13.8148515625,1.588044285774231,-7.368190765380859,6.273597717285156
1657787306803851800,13.824851806640625,1.649993658065796,-7.097530364990234,6.562989711761475
1657787306813851600,13.8348515625,1.7275655269622803,-6.804892539978027,6.8468241691589355
1657787306823851800,13.844851806640625,1.819089412689209,-6.48973274230957,7.123509883880615
1657787306833852000,13.854851806640625,1.9221312999725342,-6.1504716873168945,7.392385482788086
1657787306843852000,13.86485205078125,2.034693956375122,-5.785691261291504,7.652183532714844
1657787306853852000,13.874851806640624,2.1524579524993896,-5.396390914916992,7.900379657745361
1657787306863852000,13.88485205078125,2.270871162414551,-4.982774257659912,8.135433197021484
1657787306873852000,13.894851806640625,2.3853561878204346,-4.544371128082275,8.356374740600586
1657787306883852000,13.90485205078125,2.490809679031372,-4.085131645202637,8.560240745544434
1657787306893852700,13.914852783203125,2.5835025310516357,-3.608839273452759,8.74482536315918
1657787306903852800,13.924852783203125,2.661250352859497,-3.120011568069458,8.908061027526855
1657787306913852700,13.934852783203125,2.723588466644287,-2.6255064010620117,9.04759693145752
1657787306923852800,13.944852783203125,2.770021915435791,-2.131913661956787,9.1625337600708
1657787306933852700,13.954852783203124,2.800139904022217,-1.6489923000335693,9.252585411071777
1657787306943852800,13.964852783203124,2.817127227783203,-1.182131052017212,9.318607330322266
1657787306953852700,13.974852783203126,2.8237552642822266,-0.7367777228355408,9.362366676330566
1657787306963852800,13.984852783203126,2.8234267234802246,-0.317238986492157,9.386049270629883
1657787306973854000,13.99485400390625,2.819166660308838,0.07098863273859024,9.392416954040527
1657787306983853800,14.004853759765625,2.813260078430176,0.4304085969924927,9.3845853805542
1657787306993854000,14.01485400390625,2.809257745742798,0.759825587272644,9.364876747131348
1657787307003853800,14.024853759765625,2.8110196590423584,1.0559135675430298,9.335598945617676
1657787307013854000,14.03485400390625,2.819685697555542,1.3228610754013062,9.298911094665527
1657787307023853600,14.044853515625,2.836041212081909,1.5623674392700195,9.256677627563477
1657787307033853400,14.054853515625,2.8620383739471436,1.7734280824661255,9.210527420043945
1657787307043853600,14.064853515625,2.8957056999206543,1.954648494720459,9.163203239440918
1657787307053853400,14.074853515625,2.938741683959961,2.1250767707824707,9.111428260803223
1657787307063853600,14.084853515625,2.990673065185547,2.275679111480713,9.057994842529297
1657787307073853400,14.094853515625,3.0474534034729004,2.4089603424072266,9.004447937011719
1657787307083853600,14.104853515625,3.1071858406066895,2.5233004093170166,8.9525785446167
1657787307093853400,14.114853515625,3.166353940963745,2.6139726638793945,8.9057035446167
1657787307103853600,14.124853515625,3.22302508354187,2.68052077293396,8.865500450134277
1657787307113853400,14.134853515625,3.275789976119995,2.7200236320495605,8.83406925201416
1657787307123853600,14.144853515625,3.3221232891082764,2.7259509563446045,8.814919471740723
1657787307133853200,14.154853271484376,3.3601620197296143,2.699629545211792,8.808606147766113
1657787307143853300,14.164853271484375,3.388484477996826,2.6375789642333984,8.816547393798828
1657787307153853400,14.174853515625,3.403130292892456,2.532644510269165,8.841634750366211
1657787307163853300,14.184853271484375,3.403116226196289,2.387877941131592,8.881834983825684
1657787307173853000,14.19485302734375,3.385392427444458,2.2028634548187256,8.936264038085938
1657787307183853000,14.20485302734375,3.3457319736480713,1.9713211059570312,9.005002975463867
1657787307193852200,14.21485205078125,3.28474760055542,1.6959357261657715,9.083189010620117
1657787307203852000,14.22485205078125,3.2038819789886475,1.3762037754058838,9.165773391723633
1657787307213852200,14.23485205078125,3.1048336029052734,1.0104703903198242,9.247110366821289
1657787307223852300,14.244852294921875,2.9928743839263916,0.6089634895324707,9.318912506103516
1657787307233852000,14.254851806640625,2.8694584369659424,0.1780301034450531,9.375751495361328
1657787307243851800,14.264851806640625,2.737828016281128,-0.2775404155254364,9.412618637084961
1657787307253852000,14.274851806640624,2.6036603450775146,-0.7471432685852051,9.42512321472168
1657787307263851800,14.284851806640624,2.4722201824188232,-1.223958134651184,9.41064739227295
1657787307273850600,14.2948505859375,2.351489543914795,-1.7018039226531982,9.367202758789062
1657787307283850800,14.304850830078125,2.24298357963562,-2.1736488342285156,9.29593563079834
1657787307293850600,14.3148505859375,2.1478688716888428,-2.6352550983428955,9.198493003845215
1657787307303850800,14.324850830078125,2.067188024520874,-3.084747791290283,9.076414108276367
1657787307313850600,14.3348505859375,1.9986785650253296,-3.524256706237793,8.930562019348145
1657787307323851000,14.34485107421875,1.9436990022659302,-3.954627275466919,8.760884284973145
1657787307333851100,14.35485107421875,1.9048820734024048,-4.375792503356934,8.567041397094727
1657787307343851300,14.364851318359374,1.8794599771499634,-4.787317752838135,8.349818229675293
1657787307353851100,14.37485107421875,1.8656787872314453,-5.187560081481934,8.110407829284668
1657787307363851000,14.38485107421875,1.8610657453536987,-5.57303524017334,7.851612567901611
1657787307373851100,14.39485107421875,1.8611773252487183,-5.940847873687744,7.57710075378418
1657787307383851300,14.404851318359375,1.8628374338150024,-6.28838586807251,7.290831565856934
1657787307393851100,14.41485107421875,1.8639719486236572,-6.611708641052246,6.998642444610596
1657787307403851000,14.42485107421875,1.8646003007888794,-6.908913612365723,6.705237865447998
1657787307413851100,14.43485107421875,1.8646453619003296,-7.177919387817383,6.4164347648620605
1657787307423851300,14.444851318359374,1.865486979484558,-7.415505409240723,6.140058994293213
1657787307433851100,14.45485107421875,1.8685511350631714,-7.625088691711426,5.876779556274414
1657787307443851000,14.46485107421875,1.8758044242858887,-7.809621334075928,5.626823425292969
1657787307453851100,14.47485107421875,1.8871599435806274,-7.972153663635254,5.390127658843994
1657787307463851000,14.48485107421875,1.9042776823043823,-8.114141464233398,5.1676411628723145
1657787307473851400,14.494851318359375,1.9264473915100098,-8.240208625793457,4.955593109130859
1657787307483851500,14.5048515625,1.9511685371398926,-8.352295875549316,4.754180431365967
1657787307493851400,14.514851318359375,1.9753327369689941,-8.45157527923584,4.564958095550537
1657787307503851500,14.5248515625,1.995664119720459,-8.54067611694336,4.386833667755127
1657787307513851400,14.534851318359374,2.0106115341186523,-8.621110916137695,4.219466209411621
1657787307523851500,14.5448515625,2.0201416015625,-8.694305419921875,4.0617899894714355
1657787307533851600,14.5548515625,2.024765729904175,-8.76193904876709,3.9113574028015137
1657787307543851800,14.564851806640625,2.025153160095215,-8.825064659118652,3.766577959060669
1657787307553851600,14.5748515625,2.0210673809051514,-8.883614540100098,3.6285932064056396
1657787307563851800,14.584851806640625,2.012441635131836,-8.937920570373535,3.497666597366333
1657787307573851600,14.5948515625,2.0005180835723877,-8.988141059875488,3.373607873916626
1657787307583851800,14.604851806640625,1.9875352382659912,-9.033634185791016,3.257819652557373
1657787307593851600,14.6148515625,1.975648045539856,-9.074556350708008,3.1495025157928467
1657787307603851800,14.624851806640624,1.9666361808776855,-9.110928535461426,3.0485174655914307
1657787307613851600,14.6348515625,1.963240385055542,-9.142446517944336,2.9549131393432617
1657787307623851800,14.644851806640625,1.9652920961380005,-9.169655799865723,2.8679449558258057
1657787307633851600,14.6548515625,1.9759385585784912,-9.192256927490234,2.7871572971343994
1657787307643851800,14.664851806640625,1.999294638633728,-9.208979606628418,2.7143564224243164
1657787307653851600,14.6748515625,2.0345938205718994,-9.219582557678223,2.6513917446136475
1657787307663851800,14.684851806640625,2.0798816680908203,-9.223766326904297,2.6011953353881836
