time,seconds_elapsed,z,y,x
1657787293034703000,0.055703125,1.2824351787567139,0.2938261926174164,0.2413681298494339
1657787293036676000,0.057676025390625,1.2824351787567139,0.2938261926174164,0.2413681298494339
1657787293038693000,0.059693115234375,1.2824351787567139,0.2938261926174164,0.2413681298494339
1657787293040706600,0.06170654296875,1.2824351787567139,0.2938261926174164,0.2413681298494339
1657787293042712800,0.063712890625,1.2824351787567139,0.2938261926174164,0.2413681298494339
1657787293044719900,0.065719970703125,1.2824351787567139,0.2938261926174164,0.2413681298494339
1657787293046723000,0.06772314453125,1.2824351787567139,0.2938261926174164,0.2413681298494339
1657787293048727800,0.069727783203125,1.2824351787567139,0.2938261926174164,0.2413681298494339
1657787293050730000,0.07172998046875,1.493794560432434,0.24495697021484375,0.4246276915073395
1657787293052733400,0.0737333984375,1.4968489408493042,0.24129177629947662,0.42707115411758423
1657787293054736600,0.075736572265625,1.5078444480895996,0.23884831368923187,0.4282929003238678
1657787293056736800,0.07773681640625,1.5206726789474487,0.242513507604599,0.4289037585258484
1657787293058739200,0.0797392578125,1.5206726789474487,0.242513507604599,0.4289037585258484
1657787293060741600,0.08174169921875,1.5286139249801636,0.2571742534637451,0.43623414635658264
1657787293062743600,0.08374365234375,1.53288996219635,0.2730567753314972,0.44112107157707214
1657787293064745500,0.085745361328125,1.5383877754211426,0.2834414839744568,0.44661885499954224
1657787293066747400,0.087747314453125,1.5414420366287231,0.3078760802745819,0.4533383846282959
1657787293068749000,0.0897490234375,1.542663812637329,0.33169981837272644,0.46189048886299133
1657787293070750700,0.091750732421875,1.5451072454452515,0.3494149148464203,0.4673882722854614
1657787293072752000,0.093752197265625,1.5512158870697021,0.3805690407752991,0.4734969139099121
1657787293074753500,0.09575341796875,1.5548810958862305,0.4080579876899719,0.4789946973323822
1657787293076755500,0.09775537109375,1.5554920434951782,0.4251621961593628,0.4826599061489105
1657787293078756900,0.0997568359375,1.5579354763031006,0.455705463886261,0.4887685477733612
1657787293080758000,0.101758056640625,1.5640441179275513,0.4856378734111786,0.49121201038360596
1657787293082759200,0.10375927734375,1.5652657747268677,0.5002986192703247,0.49182286858558655
1657787293084760300,0.10576025390625,1.5670983791351318,0.5290092825889587,0.49060115218162537
1657787293086761500,0.107761474609375,1.570152759552002,0.5546656250953674,0.48571422696113586
1657787293088762400,0.109762451171875,1.573207139968872,0.5656611919403076,0.4838816225528717
1657787293090763500,0.111763427734375,1.5762614011764526,0.588263213634491,0.47105345129966736
1657787293092764400,0.113764404296875,1.578704833984375,0.6053674817085266,0.45517095923423767
1657787293094765300,0.115765380859375,1.5756505727767944,0.6096435189247131,0.44661885499954224
1657787293096765400,0.117765380859375,1.581148386001587,0.6065891981124878,0.40080395340919495
1657787293098765000,0.11976513671875,1.581148386001587,0.6065891981124878,0.40080395340919495
1657787293100765000,0.121764892578125,1.5829808712005615,0.6004805564880371,0.38614320755004883
1657787293102765300,0.123765380859375,1.5878678560256958,0.5791002511978149,0.35559993982315063
1657787293104765200,0.12576513671875,1.588478684425354,0.5473352670669556,0.3213914632797241
1657787293106765600,0.127765625,1.5933656692504883,0.5283984541893005,0.3012329339981079
1657787293108765700,0.129765625,1.599474310874939,0.4862487316131592,0.26458099484443665
1657787293110766000,0.13176611328125,1.6055829524993896,0.4355469346046448,0.22365303337574005
1657787293112766000,0.133765869140625,1.6086372137069702,0.4105014503002167,0.20349448919296265
1657787293114765800,0.135765869140625,1.6159676313400269,0.3530801236629486,0.16134478151798248
1657787293116766500,0.137766357421875,1.6251306533813477,0.29565876722335815,0.12408200651407242
1657787293118766300,0.139766357421875,1.6294066905975342,0.26633724570274353,0.0996473953127861
1657787293120766500,0.141766357421875,1.6379587650299072,0.2070833146572113,0.06299547851085663
1657787293122766300,0.143766357421875,1.6477326154708862,0.1466076523065567,0.025732697919011116
1657787293124766500,0.145766357421875,1.6495652198791504,0.11667526513338089,0.00862847175449133
1657787293126766300,0.147766357421875,1.655673861503601,0.06169738993048668,-0.024358252063393593
1657787293128766500,0.149766357421875,1.663615107536316,0.006719517521560192,-0.05429064854979515
1657787293130766300,0.151766357421875,1.6672803163528442,-0.015882495790719986,-0.06895141303539276
1657787293132766500,0.153766357421875,1.6727781295776367,-0.0659734457731247,-0.09094256162643433
1657787293134766300,0.155766357421875,1.6758323907852173,-0.10995574295520782,-0.10804679244756699
1657787293136765200,0.15776513671875,1.6770541667938232,-0.23151792585849762,-0.1324813961982727
1657787293138764300,0.159764404296875,1.6770541667938232,-0.23151792585849762,-0.1324813961982727
1657787293140763400,0.161763427734375,1.6770541667938232,-0.23151792585849762,-0.1324813961982727
1657787293142679000,0.163678955078125,1.6770541667938232,-0.23151792585849762,-0.1324813961982727
1657787293144704000,0.1657041015625,1.673388957977295,-0.2431243658065796,-0.1330922693014145
1657787293146704100,0.1677041015625,1.6703346967697144,-0.2632829248905182,-0.13003793358802795
1657787293148698000,0.169697998046875,1.6672803163528442,-0.27122417092323303,-0.12576188147068024
1657787293150698000,0.171697998046875,1.6562848091125488,-0.2877175211906433,-0.11659890413284302
1657787293152697900,0.17369775390625,1.644067406654358,-0.30115658044815063,-0.10560332983732224
1657787293154697700,0.17569775390625,1.6379587650299072,-0.3078760802745819,-0.09888381510972977
1657787293156697300,0.177697265625,1.6251306533813477,-0.3139847218990326,-0.08544477820396423
1657787293158697200,0.179697265625,1.6074155569076538,-0.31581732630729675,-0.06834054738283157
1657787293160697000,0.181697021484375,1.6006959676742554,-0.31459560990333557,-0.06223189830780029
1657787293162697000,0.183697021484375,1.5823700428009033,-0.31459560990333557,-0.04573853686451912
1657787293164697000,0.185697021484375,1.5658767223358154,-0.3090978264808655,-0.030466904863715172
1657787293166695700,0.18769580078125,1.5548810958862305,-0.30543261766433716,-0.023747386410832405
1657787293168695800,0.18969580078125,1.5371659994125366,-0.29565876722335815,-0.008475755341351032
1657787293170695700,0.19169580078125,1.5206726789474487,-0.28527405858039856,0.004963280167430639
1657787293172695800,0.19369580078125,1.5108988285064697,-0.27611109614372253,0.01412625890225172
1657787293174695700,0.19569580078125,1.493794560432434,-0.2626720666885376,0.025732697919011116
1657787293176694300,0.1976943359375,1.4333189725875854,-0.192422553896904,0.06788240373134613
1657787293178692600,0.199692626953125,1.4284319877624512,-0.18570303916931152,0.07154759019613266
1657787293180691200,0.201691162109375,1.4229341745376587,-0.1765400618314743,0.07765624672174454
1657787293182689800,0.203689697265625,1.4229341745376587,-0.1765400618314743,0.07765624672174454
1657787293184688400,0.2056884765625,1.4162147045135498,-0.16737708449363708,0.07765624672174454
1657787293186687000,0.20768701171875,1.4162147045135498,-0.16737708449363708,0.07765624672174454
1657787293188687000,0.20968701171875,1.409495234489441,-0.15821409225463867,0.08193229883909225
1657787293190687000,0.21168701171875,1.4003322124481201,-0.14905111491680145,0.0849866271018982
1657787293192686800,0.213686767578125,1.3881149291992188,-0.13377949595451355,0.08926268666982651
1657787293194687000,0.21568701171875,1.3746758699417114,-0.11789698898792267,0.09414960443973541
1657787293196686800,0.217686767578125,1.372232437133789,-0.11423180252313614,0.0947604700922966
1657787293198687000,0.21968701171875,1.360625982284546,-0.10201449692249298,0.09720393270254135
1657787293200686800,0.221686767578125,1.3490195274353027,-0.0959058403968811,0.10270171612501144
1657787293202687000,0.22368701171875,1.342910885810852,-0.09285151958465576,0.10270171612501144
1657787293204686800,0.225686767578125,1.333137035369873,-0.0861319974064827,0.10636691004037857
1657787293206687000,0.22768701171875,1.3245849609375,-0.07941248267889023,0.10697777569293976
1657787293208686800,0.229686767578125,1.3160327672958374,-0.07819075137376785,0.10881037265062332
1657787293210687000,0.23168701171875,1.3080915212631226,-0.07452555745840073,0.11308643221855164
1657787293212686800,0.233686767578125,1.2964850664138794,-0.06780604273080826,0.11369729042053223
1657787293214687000,0.23568701171875,1.2934308052062988,-0.0659734457731247,0.11797334998846054
1657787293216685000,0.23768505859375,1.2488375902175903,-0.04092797264456749,0.13202324509620667
1657787293218683000,0.239682861328125,1.2488375902175903,-0.04092797264456749,0.13202324509620667
1657787293220680700,0.2416806640625,1.2427289485931396,-0.0354301854968071,0.13691017031669617
1657787293222678800,0.2436787109375,1.236620306968689,-0.02932153269648552,0.13813190162181854
1657787293224677000,0.245677001953125,1.2311224937438965,-0.025656340643763542,0.14118622243404388
1657787293226675500,0.247675537109375,1.2311224937438965,-0.025656340643763542,0.14118622243404388
1657787293228675300,0.24967529296875,1.2219595909118652,-0.01771509274840355,0.14179709553718567
1657787293230675500,0.251675537109375,1.2097423076629639,-0.00366519158706069,0.1460731476545334
1657787293232675300,0.25367529296875,1.2030227184295654,0.004886921960860491,0.14912748336791992
1657787293234675500,0.255675537109375,1.1889728307724,0.02382374368607998,0.1503492146730423
1657787293236675300,0.25767529296875,1.1743121147155762,0.04092797264456749,0.15218180418014526
1657787293238675500,0.259675537109375,1.1730903387069702,0.05314527451992035,0.15218180418014526
1657787293240675300,0.26167529296875,1.1572078466415405,0.07635815441608429,0.15157094597816467
1657787293242675500,0.263675537109375,1.1468231678009033,0.09529497474431992,0.14912748336791992
1657787293244675300,0.26567529296875,1.1358275413513184,0.10262536257505417,0.14851661026477814
1657787293246675500,0.267675537109375,1.124832034111023,0.11789698898792267,0.14668402075767517
1657787293248675600,0.269675537109375,1.1120038032531738,0.12400564551353455,0.14301882684230804
1657787293250675500,0.271675537109375,1.1065059900283813,0.12828169763088226,0.14240795373916626
1657787293252675600,0.273675537109375,1.095510482788086,0.13072516024112701,0.14118622243404388
1657787293254675500,0.275675537109375,1.084514856338501,0.13255776464939117,0.14118622243404388
1657787293256674800,0.2776748046875,1.0729084014892578,0.13316862285137177,0.13752104341983795
1657787293258674700,0.2796748046875,1.0667997598648071,0.13255776464939117,0.13935363292694092
1657787293260674800,0.2816748046875,1.05946946144104,0.13255776464939117,0.1405753642320633
1657787293262674700,0.2836748046875,1.055193305015564,0.1319468915462494,0.14179709553718567
1657787293264674800,0.2856748046875,1.0448086261749268,0.13011430203914642,0.144851416349411
1657787293266674700,0.2876748046875,1.0338131189346313,0.13072516024112701,0.1503492146730423
1657787293268674800,0.2896748046875,1.0295369625091553,0.13255776464939117,0.15279266238212585
1657787293270674700,0.2916748046875,1.019152283668518,0.13805554807186127,0.15890131890773773
1657787293272674800,0.2936748046875,1.0057132244110107,0.14355333149433136,0.16745343804359436
1657787293274674700,0.2956748046875,0.9983828663825989,0.14844025671482086,0.17172949016094208
1657787293276676000,0.297676025390625,0.9879981875419617,0.1563815027475357,0.1802816092967987
1657787293278676700,0.2996767578125,0.9733374118804932,0.1667662113904953,0.19310978055000305
1657787293280677600,0.301677734375,0.9672287702560425,0.17348572611808777,0.1961641013622284
1657787293282678500,0.303678466796875,0.9556223154067993,0.18448130786418915,0.20410534739494324
1657787293284679400,0.305679443359375,0.9379072189331055,0.19608774781227112,0.21693351864814758
1657787293286680000,0.30768017578125,0.9305768609046936,0.20341812074184418,0.2205987125635147
1657787293288680200,0.30968017578125,0.9159160852432251,0.21563543379306793,0.2303725630044937
1657787293290680000,0.31168017578125,0.8969792723655701,0.23090706765651703,0.23953554034233093
1657787293292680200,0.31368017578125,0.8878162503242493,0.23884831368923187,0.24442245066165924
1657787293294680300,0.315680419921875,0.8713229298591614,0.2535090744495392,0.2505311071872711
1657787293296679400,0.317679443359375,0.8438339829444885,0.27488934993743896,0.25969409942626953
1657787293298678500,0.319678466796875,0.8358927369117737,0.2816088795661926,0.2621375620365143
1657787293300678100,0.32167822265625,0.82917320728302,0.28588494658470154,0.2658027410507202
1657787293302678300,0.32367822265625,0.8132907152175903,0.29626965522766113,0.2670244574546814
1657787293304678400,0.325678466796875,0.8059603571891785,0.3023782968521118,0.26885706186294556
1657787293306678300,0.32767822265625,0.7900778651237488,0.3072652220726013,0.2706896662712097
1657787293308678400,0.329678466796875,0.7766388058662415,0.3084869384765625,0.27313312888145447
1657787293310678300,0.33167822265625,0.7693084478378296,0.30604347586631775,0.27435484528541565
1657787293312678100,0.33367822265625,0.7558693885803223,0.30054569244384766,0.2761874496936798
1657787293314678300,0.33567822265625,0.7399868965148926,0.29565876722335815,0.27374398708343506
1657787293316679000,0.337678955078125,0.7338782548904419,0.28955012559890747,0.27313312888145447
1657787293318679000,0.339678955078125,0.7241044044494629,0.2736676335334778,0.2700788080692291
1657787293320679000,0.341678955078125,0.7100545167922974,0.25961771607398987,0.2700788080692291
1657787293322679000,0.343678955078125,0.7045567035675049,0.24984388053417206,0.26946792006492615
1657787293324679000,0.345678955078125,0.6953937411308289,0.23029619455337524,0.2621375620365143
1657787293326679000,0.347678955078125,0.6819546818733215,0.2070833146572113,0.2627484202384949
1657787293328679200,0.34967919921875,0.6801220774650574,0.19547687470912933,0.2603049576282501
1657787293330679000,0.351678955078125,0.6691265106201172,0.17348572611808777,0.25480717420578003
1657787293332679200,0.35367919921875,0.6593526601791382,0.1466076523065567,0.2505311071872711
1657787293334679300,0.35567919921875,0.6556875109672546,0.13439035415649414,0.24869851768016815
1657787293336677600,0.357677734375,0.6263659596443176,0.02687807008624077,0.21998783946037292
1657787293338676700,0.3596767578125,0.6263659596443176,0.02687807008624077,0.21998783946037292
1657787293340676000,0.361676025390625,0.6220899224281311,0.00855211354792118,0.216322660446167
1657787293342675200,0.36367529296875,0.6220899224281311,0.00855211354792118,0.216322660446167
1657787293344675000,0.365675048828125,0.6184247136116028,-0.01160643994808197,0.21265746653079987
1657787293346675200,0.36767529296875,0.6141486167907715,-0.02932153269648552,0.20777054131031036
1657787293348675000,0.369675048828125,0.6055965423583984,-0.0659734457731247,0.2010510265827179
1657787293350675200,0.37167529296875,0.5939900875091553,-0.1062905490398407,0.19677497446537018
1657787293352675000,0.373675048828125,0.5915466547012329,-0.1258382350206375,0.19188804924488068
1657787293354675000,0.375675048828125,0.5823836326599121,-0.16065755486488342,0.18700112402439117
1657787293356675300,0.37767529296875,0.5744423866271973,-0.19303341209888458,0.1808924674987793
1657787293358676000,0.379676025390625,0.5665011405944824,-0.21074850857257843,0.1760055422782898
1657787293360676000,0.381676025390625,0.5579490661621094,-0.24068090319633484,0.17356209456920624
1657787293362676200,0.38367626953125,0.5457317233085632,-0.26572638750076294,0.16867516934871674
1657787293364676000,0.385676025390625,0.5384013652801514,-0.27611109614372253,0.16623170673847198
1657787293366676000,0.387676025390625,0.5267949104309082,-0.29504790902137756,0.16317738592624664
1657787293368676000,0.389676025390625,0.5115233063697815,-0.30543261766433716,0.15829046070575714
1657787293370676200,0.39167626953125,0.5048037767410278,-0.313373863697052,0.15829046070575714
1657787293372676000,0.393676025390625,0.4925864636898041,-0.3219259977340698,0.1558469980955124
1657787293374676200,0.39567626953125,0.4858669340610504,-0.3292563557624817,0.15157094597816467
1657787293376675300,0.39767529296875,0.435165137052536,-0.3121521472930908,0.14424055814743042
1657787293378674700,0.3996748046875,0.435165137052536,-0.3121521472930908,0.14424055814743042
1657787293380673800,0.401673828125,0.435165137052536,-0.3121521472930908,0.14424055814743042
1657787293382673000,0.4036728515625,0.435165137052536,-0.3121521472930908,0.14424055814743042
1657787293384672000,0.405672119140625,0.42905646562576294,-0.30604347586631775,0.144851416349411
1657787293386671600,0.407671630859375,0.4168391823768616,-0.2987131178379059,0.1460731476545334
1657787293388671500,0.40967138671875,0.41256311535835266,-0.29565876722335815,0.14790575206279755
1657787293390671400,0.41167138671875,0.396680623292923,-0.28038713335990906,0.14851661026477814
1657787293392671500,0.41367138671875,0.3856850564479828,-0.27000242471694946,0.15706872940063477
1657787293394671400,0.41567138671875,0.37835466861724854,-0.26450464129447937,0.1558469980955124
1657787293396672500,0.417672607421875,0.3649156391620636,-0.25045475363731384,0.16134478151798248
1657787293398673400,0.41967333984375,0.35330918431282043,-0.23518311977386475,0.16684256494045258
1657787293400674000,0.421674072265625,0.34292447566986084,-0.2278527319431305,0.17234036326408386
1657787293402675000,0.423675048828125,0.3294854462146759,-0.21135938167572021,0.17722727358341217
1657787293404675000,0.425675048828125,0.3136029541492462,-0.18875735998153687,0.18455766141414642
1657787293406675500,0.427675537109375,0.30749428272247314,-0.18020524084568024,0.18883371353149414
1657787293408675600,0.429675537109375,0.292833536863327,-0.15821409225463867,0.19677497446537018
1657787293410675700,0.43167578125,0.27695104479789734,-0.13927727937698364,0.20410534739494324
1657787293412675600,0.433675537109375,0.2677880525588989,-0.12828169763088226,0.20960313081741333
1657787293414675700,0.43567578125,0.2549598813056946,-0.10567969083786011,0.2212095707654953
1657787293416675300,0.43767529296875,0.19509509205818176,-0.021380282938480377,0.2627484202384949
1657787293418674700,0.4396748046875,0.18715384602546692,-0.010995574295520782,0.26824620366096497
1657787293420673800,0.441673828125,0.1779908537864685,0.0012217304902151227,0.27374398708343506
1657787293422673000,0.4436728515625,0.1779908537864685,0.0012217304902151227,0.27374398708343506
1657787293424672300,0.44567236328125,0.1779908537864685,0.0012217304902151227,0.27374398708343506
1657787293426672000,0.447672119140625,0.1779908537864685,0.0012217304902151227,0.27374398708343506
1657787293428672300,0.44967236328125,0.15966489911079407,0.019547687843441963,0.2816852331161499
1657787293430672100,0.451672119140625,0.14866933226585388,0.030543262138962746,0.2859613001346588
1657787293432672000,0.453672119140625,0.13034337759017944,0.04337143152952194,0.2914590835571289
1657787293434671900,0.455671875,0.11140654981136322,0.05375614017248154,0.2975677251815796
1657787293436672000,0.457672119140625,0.10407616943120956,0.0555887371301651,0.29878947138786316
1657787293438672000,0.459671875,0.08269587904214859,0.056810468435287476,0.3030655086040497
1657787293440672000,0.461672119140625,0.06620252132415771,0.05497787147760391,0.30367639660835266
1657787293442671900,0.463671875,0.05642867833375931,0.05009094998240471,0.30428725481033325
1657787293444672000,0.465672119140625,0.04115704447031021,0.04337143152952194,0.30489811301231384
1657787293446675200,0.46767529296875,0.022831087931990623,0.03298672288656235,0.3012329339981079
1657787293448675300,0.46967529296875,0.01488984003663063,0.025656340643763542,0.30062204599380493
1657787293450675500,0.471675537109375,-0.004657847341150045,0.012828170321881771,0.2920699417591095
1657787293452675600,0.473675537109375,-0.019318614155054092,0.001832595793530345,0.28290697932243347
1657787293454675700,0.47567578125,-0.02848159149289131,-0.005497787147760391,0.27802005410194397
1657787293456673300,0.47767333984375,-0.0541379339993,-0.02015855349600315,0.2566397488117218
1657787293458673400,0.47967333984375,-0.06391177326440811,-0.02687807008624077,0.246865913271904
1657787293460673800,0.481673828125,-0.07246389240026474,-0.03176499158143997,0.23770293593406677
1657787293462676500,0.483676513671875,-0.08773551881313324,-0.039706241339445114,0.21937698125839233
1657787293464676400,0.48567626953125,-0.10422888398170471,-0.05192354694008827,0.2010510265827179
1657787293466676500,0.487676513671875,-0.11400272697210312,-0.05497787147760391,0.19188804924488068
1657787293468676400,0.48967626953125,-0.12866349518299103,-0.05803219974040985,0.1711186319589615
1657787293470676500,0.491676513671875,-0.14210252463817596,-0.06719517707824707,0.15157094597816467
1657787293472676400,0.49367626953125,-0.15248723328113556,-0.06841690838336945,0.14301882684230804
1657787293474676500,0.495676513671875,-0.16959145665168762,-0.07024950534105301,0.1253037303686142
1657787293476676400,0.49767626953125,-0.18913915753364563,-0.07208210229873657,0.1051451787352562
1657787293478676500,0.499676513671875,-0.19708040356636047,-0.07452555745840073,0.09781479835510254
1657787293480676400,0.50167626953125,-0.21479548513889313,-0.0757472887635231,0.07826711237430573
1657787293482676500,0.503676513671875,-0.22395847737789154,-0.07513642311096191,0.06788240373134613
1657787293484676600,0.505676513671875,-0.24045182764530182,-0.08552113175392151,0.05322163552045822
1657787293486676500,0.507676513671875,-0.2575560510158539,-0.09468411654233932,0.03856086730957031
1657787293488676600,0.509676513671875,-0.2661081850528717,-0.10323622822761536,0.0342848114669323
1657787293490676500,0.511676513671875,-0.2856558561325073,-0.11362093687057495,0.01840231567621231
1657787293492676600,0.513676513671875,-0.3027600944042206,-0.1258382350206375,0.006795875728130341
1657787293494676700,0.5156767578125,-0.30947959423065186,-0.13439035415649414,0.0019089538836851716
1657787293496675800,0.51767578125,-0.3357468247413635,-0.15515977144241333,-0.024358252063393593
1657787293498675000,0.519675048828125,-0.3357468247413635,-0.15515977144241333,-0.024358252063393593
1657787293500674600,0.521674560546875,-0.3424663245677948,-0.15882496535778046,-0.029245173558592796
1657787293502674400,0.52367431640625,-0.3479641079902649,-0.16737708449363708,-0.046960264444351196
1657787293504674600,0.525674560546875,-0.3528510332107544,-0.17287486791610718,-0.06406449526548386
1657787293506674000,0.527673828125,-0.35468363761901855,-0.17409659922122955,-0.07078400999307632
1657787293508674000,0.529674072265625,-0.35468363761901855,-0.17043140530586243,-0.08910996466875076
1657787293510674000,0.531673828125,-0.35468363761901855,-0.16065755486488342,-0.10621419548988342
1657787293512673800,0.533673828125,-0.353461891412735,-0.152105450630188,-0.11354457587003708
1657787293514674000,0.535673828125,-0.34918585419654846,-0.12461651116609573,-0.13920091092586517
1657787293516674800,0.5376748046875,-0.3473532497882843,-0.1007927656173706,-0.15874861180782318
1657787293518674700,0.5396748046875,-0.34429892897605896,-0.08918632566928864,-0.17157678306102753
1657787293520674300,0.54167431640625,-0.3381902575492859,-0.07635815441608429,-0.18745927512645721
1657787293522673400,0.54367333984375,-0.3333033621311188,-0.06719517707824707,-0.2033417671918869
1657787293524673300,0.54567333984375,-0.32902729511260986,-0.06230825558304787,-0.208839550614357
1657787293526673400,0.54767333984375,-0.3216969072818756,-0.05375614017248154,-0.21983513236045837
1657787293528673500,0.549673583984375,-0.32047519087791443,-0.04764748737215996,-0.23449589312076569
1657787293530673400,0.55167333984375,-0.31864258646965027,-0.04642575979232788,-0.2387719452381134
1657787293532673500,0.553673583984375,-0.3180317282676697,-0.03298672288656235,-0.2546544373035431
1657787293534673400,0.55567333984375,-0.32047519087791443,-0.01710422709584236,-0.2680934965610504
1657787293536672800,0.5576728515625,-0.31925344467163086,0.06536258012056351,-0.3242930769920349
1657787293538671900,0.559671875,-0.31925344467163086,0.06536258012056351,-0.3242930769920349
1657787293540671000,0.5616708984375,-0.31925344467163086,0.06536258012056351,-0.3242930769920349
1657787293542670000,0.563670166015625,-0.31925344467163086,0.06536258012056351,-0.3242930769920349
1657787293544670000,0.565669921875,-0.3161991238594055,0.0806342139840126,-0.3340669274330139
1657787293546670000,0.567670166015625,-0.3107013404369354,0.11911872029304504,-0.35300374031066895
1657787293548670000,0.569669921875,-0.30459266901016235,0.14294247329235077,-0.3609450161457062
1657787293550670000,0.571670166015625,-0.28932106494903564,0.20586158335208893,-0.3762166202068329
1657787293552670000,0.573669921875,-0.2679407596588135,0.27000242471694946,-0.39271000027656555
1657787293554669800,0.575669921875,-0.2563343346118927,0.3029891550540924,-0.4006512463092804
1657787293556671000,0.5776708984375,-0.2355649173259735,0.36163222789764404,-0.4159228801727295
1657787293558672000,0.579671875,-0.2111303061246872,0.4129449129104614,-0.42814019322395325
1657787293560672300,0.58167236328125,-0.20196732878684998,0.43615779280662537,-0.43791401386260986
1657787293562672000,0.583672119140625,-0.18486309051513672,0.46547931432724,-0.44829872250556946
1657787293564672000,0.585672119140625,-0.1702023297548294,0.48685958981513977,-0.45807257294654846
1657787293566672000,0.587671875,-0.1659262776374817,0.4905247986316681,-0.46295949816703796
1657787293568672000,0.589672119140625,-0.16165021061897278,0.49846604466438293,-0.47273334860801697
1657787293570672000,0.591672119140625,-0.15798501670360565,0.49235737323760986,-0.4800637364387512
1657787293572672000,0.593672119140625,-0.15798501670360565,0.49357911944389343,-0.48372891545295715
1657787293574672100,0.595672119140625,-0.16470454633235931,0.4862487316131592,-0.4861723780632019
1657787293576671200,0.597671142578125,-0.22518019378185272,0.47219884395599365,-0.491670161485672
1657787293578670300,0.59967041015625,-0.22518019378185272,0.47219884395599365,-0.491670161485672
1657787293580669400,0.60166943359375,-0.22518019378185272,0.47219884395599365,-0.491670161485672
1657787293582668500,0.60366845703125,-0.23800836503505707,0.47280970215797424,-0.49472448229789734
1657787293584668000,0.60566796875,-0.24900394678115845,0.4715879559516907,-0.491670161485672
1657787293586667000,0.6076669921875,-0.24900394678115845,0.4715879559516907,-0.491670161485672
1657787293588667000,0.6096669921875,-0.2722168266773224,0.4715879559516907,-0.491670161485672
1657787293590667000,0.6116669921875,-0.2868776023387909,0.4709770977497101,-0.49411362409591675
1657787293592667000,0.6136669921875,-0.31436651945114136,0.45875978469848633,-0.49472448229789734
1657787293594666800,0.615666748046875,-0.3479641079902649,0.44104471802711487,-0.49838969111442566
1657787293596667600,0.617667724609375,-0.36567920446395874,0.42760565876960754,-0.5014439821243286
1657787293598668500,0.61966845703125,-0.3992767930030823,0.3982841372489929,-0.5112178325653076
1657787293600669200,0.621669189453125,-0.4292092025279999,0.36163222789764404,-0.5216025710105896
1657787293602670000,0.623670166015625,-0.4432590901851654,0.3439171314239502,-0.5264894962310791
1657787293604670200,0.625670166015625,-0.47746753692626953,0.30543261766433716,-0.5380959510803223
1657787293606670300,0.62767041015625,-0.4988478422164917,0.26939156651496887,-0.5521458387374878
1657787293608670200,0.629670166015625,-0.511676013469696,0.252287358045578,-0.5606979131698608
1657787293610670300,0.63167041015625,-0.5306128263473511,0.22296582162380219,-0.5778021812438965
1657787293612670500,0.63367041015625,-0.5391649603843689,0.19547687470912933,-0.5942955017089844
1657787293614670300,0.63567041015625,-0.5422192811965942,0.18570303916931152,-0.6028476357460022
1657787293616669400,0.63766943359375,-0.49640437960624695,0.09773843735456467,-0.6633232831954956
1657787293618668500,0.63966845703125,-0.48663052916526794,0.08552113175392151,-0.6682102084159851
1657787293620667600,0.641667724609375,-0.48663052916526794,0.08552113175392151,-0.6682102084159851
1657787293622666800,0.643666748046875,-0.47258061170578003,0.07635815441608429,-0.6730971336364746
1657787293624666600,0.64566650390625,-0.4591415822505951,0.06658431142568588,-0.6773731708526611
1657787293626666000,0.647666015625,-0.4591415822505951,0.06658431142568588,-0.6773731708526611
1657787293628665900,0.649665771484375,-0.4426482319831848,0.05742133408784866,-0.6798166632652283
1657787293630666000,0.651666015625,-0.41027235984802246,0.03726277872920036,-0.6828709840774536
1657787293632665900,0.653665771484375,-0.391946405172348,0.027488935738801956,-0.6828709840774536
1657787293634666000,0.655666015625,-0.35529449582099915,0.003054326167330146,-0.6785949468612671
1657787293636666600,0.65766650390625,-0.3161991238594055,-0.02626720629632473,-0.6712645292282104
1657787293638667500,0.65966748046875,-0.2978731691837311,-0.04337143152952194,-0.6633232831954956
1657787293640668400,0.66166845703125,-0.2557234764099121,-0.07819075137376785,-0.6449973583221436
1657787293642669300,0.66366943359375,-0.2154063582420349,-0.11239920556545258,-0.6266713738441467
1657787293644670200,0.665670166015625,-0.19708040356636047,-0.12767083942890167,-0.6150649189949036
1657787293646670600,0.667670654296875,-0.1604284793138504,-0.15882496535778046,-0.5869651436805725
1657787293648670700,0.669670654296875,-0.1249983012676239,-0.1918116807937622,-0.5564218759536743
1657787293650670600,0.671670654296875,-0.10850493609905243,-0.20830504596233368,-0.5405393838882446
1657787293652670700,0.673670654296875,-0.07857254147529602,-0.24129177629947662,-0.5038874745368958
1657787293654670800,0.6756708984375,-0.05474879592657089,-0.2791654169559479,-0.4647921025753021
1657787293656670000,0.677669921875,-0.03703370690345764,-0.3194825351238251,-0.4195880591869354
1657787293658669600,0.679669677734375,-0.02848159149289131,-0.34086281061172485,-0.3957643210887909
1657787293660670000,0.681669921875,-0.01687515154480934,-0.3842342495918274,-0.349338561296463
1657787293662669800,0.683669921875,-0.010766499675810337,-0.4080579876899719,-0.32246050238609314
1657787293664670000,0.685669921875,-0.0009926559869199991,-0.4538728892803192,-0.268704354763031
1657787293666669800,0.687669921875,0.005115996580570936,-0.50335294008255,-0.21128301322460175
1657787293668669400,0.68966943359375,0.012446379289031029,-0.5241223573684692,-0.18440493941307068
1657787293670669300,0.69166943359375,0.019776761531829834,-0.5736024379730225,-0.128205344080925
1657787293672669400,0.69366943359375,0.0264962799847126,-0.6279694437980652,-0.07078400999307632
1657787293674669300,0.69566943359375,0.030772335827350616,-0.655458390712738,-0.03962988406419754
1657787293676670700,0.697670654296875,0.039324451237916946,-0.7159340381622314,0.023289237171411514
1657787293678671600,0.699671630859375,0.04787656292319298,-0.7770205736160278,0.08559749275445938
1657787293680672500,0.701672607421875,0.051541756838560104,-0.8069530129432678,0.11369729042053223
1657787293682673400,0.70367333984375,0.060093868523836136,-0.8698720932006836,0.17722727358341217
1657787293684673800,0.705673828125,0.06742425262928009,-0.931569516658783,0.2413681298494339
1657787293686674400,0.70767431640625,0.06986771523952484,-0.9633345007896423,0.27313312888145447
1657787293688674600,0.709674560546875,0.072311170399189,-1.0250319242477417,0.3372739851474762
1657787293690674400,0.71167431640625,0.07475463300943375,-1.083064079284668,0.40080395340919495
1657787293692674600,0.713674560546875,0.07475463300943375,-1.112385630607605,0.429514616727829
1657787293694674700,0.7156748046875,0.07475463300943375,-1.1679743528366089,0.4899902939796448
1657787293696673800,0.717673828125,0.0668133869767189,-1.2302825450897217,0.5736788511276245
1657787293698673000,0.7196728515625,0.06498079001903534,-1.2473868131637573,0.6023895144462585
1657787293700672800,0.7216728515625,0.06131559982895851,-1.2614367008209229,0.6280458569526672
1657787293702673000,0.7236728515625,0.03810271993279457,-1.2522737979888916,0.6659194827079773
1657787293704672800,0.7256728515625,0.018555032089352608,-1.2150110006332397,0.6653085947036743
1657787293706673200,0.727673095703125,-0.022372938692569733,-1.2125675678253174,0.7062366008758545
1657787293708673000,0.729673095703125,-0.07307475805282593,-1.207680583000183,0.748997151851654
1657787293710673200,0.731673095703125,-0.09873109310865402,-1.1997393369674683,0.7612144351005554
1657787293712673000,0.733673095703125,-0.16165021061897278,-1.1728612184524536,0.7960337996482849
1657787293714673000,0.7356728515625,-0.2312888503074646,-1.1313223838806152,0.8216901421546936
1657787293716673500,0.737673583984375,-0.26855164766311646,-1.1068878173828125,0.8345182538032532
1657787293718673700,0.739673583984375,-0.35101842880249023,-1.0415252447128296,0.8491790294647217
1657787293720673500,0.741673583984375,-0.4426482319831848,-0.9486737251281738,0.853455126285553
1657787293722673400,0.74367333984375,-0.49212831258773804,-0.901637077331543,0.8552877306938171
1657787293724673500,0.745673583984375,-0.5825363397598267,-0.8191702961921692,0.862007200717926
1657787293726673400,0.74767333984375,-0.6766096353530884,-0.7318165898323059,0.8699484467506409
1657787293728673800,0.749673828125,-0.7236462235450745,-0.6798930168151855,0.8699484467506409
1657787293730674000,0.751673828125,-0.8207738399505615,-0.5558874011039734,0.8650615215301514
1657787293732673800,0.753673828125,-0.9179013967514038,-0.4092797040939331,0.853455126285553
1657787293734674000,0.755673828125,-0.9716575145721436,-0.33719760179519653,0.8473464250564575
1657787293736672500,0.757672607421875,-1.309466004371643,0.039095375686883926,0.8253552913665771
1657787293738671600,0.759671630859375,-1.309466004371643,0.039095375686883926,0.8253552913665771
1657787293740671000,0.7616708984375,-1.3473396301269531,0.06352998316287994,0.8302422165870667
1657787293742670000,0.763670166015625,-1.3473396301269531,0.06352998316287994,0.8302422165870667
1657787293744670000,0.765669921875,-1.3791046142578125,0.08124507963657379,0.8400160670280457
1657787293746670000,0.767670166015625,-1.402928352355957,0.10323622822761536,0.8491790294647217
1657787293748670000,0.769669921875,-1.4414129257202148,0.15760323405265808,0.8748353719711304
1657787293750669800,0.771669921875,-1.4542410373687744,0.23151792585849762,0.8992699980735779
1657787293752671000,0.7736708984375,-1.4572954177856445,0.2791654169559479,0.9072112441062927
1657787293754671000,0.775671142578125,-1.4554628133773804,0.3805690407752991,0.9175959825515747
1657787293756671700,0.777671630859375,-1.443245530128479,0.47830748558044434,0.9261480569839478
1657787293758672600,0.779672607421875,-1.4383585453033447,0.5149593949317932,0.9267589449882507
1657787293760672800,0.7816728515625,-1.4316390752792358,0.5674937963485718,0.9273697733879089
1657787293762673000,0.7836728515625,-1.4212543964385986,0.5949827432632446,0.9298132658004761
1657787293764672500,0.785672607421875,-1.4206434488296509,0.6059783101081848,0.9322566986083984
1657787293766672600,0.787672607421875,-1.4163674116134644,0.6218608021736145,0.9401979446411133
1657787293768672800,0.7896728515625,-1.415145754814148,0.6401867866516113,0.9554696083068848
1657787293770673000,0.7916728515625,-1.4133131504058838,0.6511823534965515,0.9640217423439026
1657787293772672500,0.793672607421875,-1.4163674116134644,0.6823364496231079,0.9829585552215576
1657787293774672400,0.79567236328125,-1.4206434488296509,0.7195992469787598,1.0031170845031738
1657787293776672000,0.797672119140625,-1.4939472675323486,0.8637634515762329,1.0226647853851318
1657787293778671000,0.799671142578125,-1.4939472675323486,0.8637634515762329,1.0226647853851318
1657787293780670200,0.801670166015625,-1.4939472675323486,0.8637634515762329,1.0226647853851318
1657787293782669300,0.80366943359375,-1.5098297595977783,0.8765916228294373,1.0183887481689453
1657787293784668700,0.805668701171875,-1.5098297595977783,0.8765916228294373,1.0183887481689453
1657787293786667800,0.807667724609375,-1.545259952545166,0.8790351152420044,1.0073931217193604
1657787293788668000,0.80966796875,-1.5629750490188599,0.8698720932006836,1.0000628232955933
1657787293790668000,0.81166796875,-1.60084867477417,0.837496280670166,0.9805150628089905
1657787293792668200,0.813668212890625,-1.6344462633132935,0.7910705208778381,0.9579130411148071
1657787293794668000,0.81566796875,-1.6503288745880127,0.7586946487426758,0.9475283622741699
1657787293796669000,0.8176689453125,-1.6717090606689453,0.6896668672561646,0.9200394153594971
1657787293798669800,0.819669921875,-1.6906459331512451,0.5968153476715088,0.891939640045166
1657787293800669700,0.821669677734375,-1.69858717918396,0.5436700582504272,0.8791114687919617
1657787293802670600,0.823670654296875,-1.7101936340332031,0.423329621553421,0.8479573130607605
1657787293804670500,0.82567041015625,-1.7126370668411255,0.28527405858039856,0.8186357617378235
1657787293806670600,0.827670654296875,-1.7144696712493896,0.21319197118282318,0.8058075904846191
1657787293808670500,0.82967041015625,-1.7108044624328613,0.05803219974040985,0.7801512479782104
1657787293810670600,0.831670654296875,-1.699808955192566,-0.09773843735456467,0.7569383978843689
1657787293812670500,0.83367041015625,-1.6937001943588257,-0.17470745742321014,0.7483862638473511
1657787293814670300,0.83567041015625,-1.677817702293396,-0.32131510972976685,0.7239516973495483
1657787293816669700,0.837669677734375,-1.5831336975097656,-0.8985827565193176,0.44539710879325867
1657787293818668800,0.839668701171875,-1.5831336975097656,-0.8985827565193176,0.44539710879325867
1657787293820668000,0.84166796875,-1.5611424446105957,-0.9608910083770752,0.39041924476623535
1657787293822667000,0.8436669921875,-1.5434273481369019,-1.017701506614685,0.3317761719226837
1657787293824667000,0.8456669921875,-1.5434273481369019,-1.017701506614685,0.3317761719226837
1657787293826665700,0.847665771484375,-1.5220471620559692,-1.064738154411316,0.2719113826751709
1657787293828665900,0.849665771484375,-1.4982234239578247,-1.103833556175232,0.2108248621225357
1657787293830665700,0.851665771484375,-1.4743996858596802,-1.1313223838806152,0.1503492146730423
1657787293832666000,0.853666015625,-1.432249903678894,-1.1649199724197388,0.03000875562429428
1657787293834666000,0.855666015625,-1.3962088823318481,-1.168585181236267,-0.08116871863603592
1657787293836667000,0.8576669921875,-1.3797155618667603,-1.1630873680114746,-0.13370312750339508
1657787293838667800,0.859667724609375,-1.3528374433517456,-1.140485405921936,-0.23083069920539856
1657787293840668700,0.861668701171875,-1.3339005708694458,-1.1001683473587036,-0.3187952935695648
1657787293842669600,0.863669677734375,-1.3277919292449951,-1.0793988704681396,-0.35666894912719727
1657787293844670200,0.865670166015625,-1.3155746459960938,-1.0323622226715088,-0.42875105142593384
1657787293846671400,0.86767138671875,-1.3058007955551147,-0.9902125597000122,-0.491670161485672
1657787293848671200,0.869671142578125,-1.3070225715637207,-0.969443142414093,-0.5216025710105896
1657787293850670800,0.8716708984375,-1.3021355867385864,-0.931569516658783,-0.5753586888313293
1657787293852671000,0.8736708984375,-1.298470377922058,-0.9108000993728638,-0.6254496574401855
1657787293854671000,0.875671142578125,-1.2948052883148193,-0.9040805697441101,-0.6449973583221436
1657787293856670200,0.877670166015625,-1.280144453048706,-0.8991936445236206,-0.6938665509223938
1657787293858670000,0.879670166015625,-1.272814154624939,-0.9004153609275818,-0.7073056101799011
1657787293860671000,0.8816708984375,-1.2667053937911987,-0.8979719281196594,-0.7201337814331055
1657787293862670600,0.883670654296875,-1.2544881105422974,-0.9010262489318848,-0.7384597063064575
1657787293864670500,0.88567041015625,-1.2404382228851318,-0.912021815776825,-0.753731369972229
1657787293866670600,0.887670654296875,-1.2318861484527588,-0.9193521738052368,-0.7580074071884155
1657787293868670500,0.88967041015625,-1.2184470891952515,-0.930347740650177,-0.762894332408905
1657787293870670300,0.89167041015625,-1.2019537687301636,-0.9364564418792725,-0.763505220413208
1657787293872669400,0.89366943359375,-1.1909581422805786,-0.9358455538749695,-0.763505220413208
1657787293874669300,0.89566943359375,-1.173853874206543,-0.9327912330627441,-0.7549530863761902
1657787293876670200,0.897670166015625,-1.1530845165252686,-0.9254608750343323,-0.7451792359352112
1657787293878671000,0.899671142578125,-1.1408672332763672,-0.9193521738052368,-0.7378488779067993
1657787293884789200,0.905789306640625,-1.116432547569275,-0.902247965335846,-0.7286858558654785
1657787293886790100,0.9077900390625,-1.0919979810714722,-0.8820894360542297,-0.7170794606208801
1657787293888790800,0.909790771484375,-1.0773372650146484,-0.8698720932006836,-0.7140251398086548
1657787293890791700,0.911791748046875,-1.054124355316162,-0.8503243923187256,-0.705473005771637
1657787293892791600,0.91379150390625,-1.0278571844100952,-0.8362745046615601,-0.6969208717346191
1657787293894791700,0.915791748046875,-1.0125855207443237,-0.8313875794410706,-0.6938665509223938
1657787293896791600,0.91779150390625,-0.9875400066375732,-0.8258898258209229,-0.6847035884857178
1657787293898792000,0.9197919921875,-0.957607626914978,-0.817337691783905,-0.6761514544487
1657787293900791300,0.921791259765625,-0.9142361879348755,-0.7941248416900635,-0.6694319248199463
1657787293902790400,0.923790283203125,-0.9142361879348755,-0.7941248416900635,-0.6694319248199463
1657787293904790000,0.9257900390625,-0.8849146366119385,-0.7776314616203308,-0.6639341711997986
1657787293906790000,0.927789794921875,-0.8684213161468506,-0.7666358947753906,-0.6621015667915344
1657787293908790000,0.9297900390625,-0.8397106528282166,-0.7446447610855103,-0.6614906787872314
1657787293910790400,0.931790283203125,-0.8207738399505615,-0.7281513810157776,-0.6572146415710449
1657787293912790300,0.933790283203125,-0.8067238926887512,-0.7183775305747986,-0.6566037535667419
1657787293914790400,0.935790283203125,-0.7896196842193604,-0.7061602473258972,-0.6498842835426331
1657787293916790300,0.937790283203125,-0.776791512966156,-0.6921103000640869,-0.6425538659095764
1657787293918790100,0.9397900390625,-0.7706828713417053,-0.6841690540313721,-0.6370561122894287
1657787293920791000,0.941791015625,-0.7541894912719727,-0.6609562039375305,-0.6230061650276184
1657787293922791200,0.943791259765625,-0.7407504916191101,-0.636521577835083,-0.6040693521499634
1657787293924791300,0.945791259765625,-0.7364743947982788,-0.6261368989944458,-0.591241180896759
1657787293926791700,0.947791748046875,-0.7230353951454163,-0.6035348773002625,-0.5661957263946533
1657787293928791800,0.949791748046875,-0.7059311270713806,-0.5754350423812866,-0.5374850630760193
1657787293930791700,0.951791748046875,-0.6961572766304016,-0.5644394755363464,-0.5197699666023254
1657787293932791800,0.953791748046875,-0.6784422397613525,-0.5381723046302795,-0.4873940944671631
1657787293934792000,0.9557919921875,-0.6546184420585632,-0.5155702829360962,-0.44829872250556946
1657787293936791800,0.957791748046875,-0.6424011588096619,-0.5057964324951172,-0.429972767829895
1657787293938792000,0.9597919921875,-0.6210208535194397,-0.48258355259895325,-0.39393171668052673
1657787293940791000,0.961791015625,-0.5348888635635376,-0.4355469346046448,-0.28641945123672485
1657787293942790100,0.9637900390625,-0.5348888635635376,-0.4355469346046448,-0.28641945123672485
1657787293944789800,0.965789794921875,-0.5226715803146362,-0.4306600093841553,-0.27053695917129517
1657787293946788900,0.967788818359375,-0.5226715803146362,-0.4306600093841553,-0.27053695917129517
1657787293948788200,0.969788330078125,-0.5104542970657349,-0.4282165467739105,-0.2595413625240326
1657787293950787300,0.971787353515625,-0.4988478422164917,-0.4251621961593628,-0.25221097469329834
1657787293952787200,0.973787109375,-0.4896848499774933,-0.42149701714515686,-0.2338850349187851
1657787293954787300,0.975787353515625,-0.46708282828330994,-0.4184426963329315,-0.22594378888607025
1657787293956787200,0.977787109375,-0.44509169459342957,-0.4153883755207062,-0.21555908024311066
1657787293958786800,0.979786865234375,-0.43592870235443115,-0.4129449129104614,-0.208839550614357
1657787293960787700,0.98178759765625,-0.4133267104625702,-0.3988949954509735,-0.20028744637966156
1657787293962788600,0.98378857421875,-0.3937790095806122,-0.2889392673969269,-0.24121540784835815
1657787293964788700,0.985788818359375,-0.3833943009376526,-0.1716531366109848,-0.29252809286117554
1657787293966787800,0.987787841796875,-0.3461315333843231,0.1918116807937622,-0.4715116024017334
1657787293968788000,0.9897880859375,-0.3076470196247101,0.4789183437824249,-0.6449973583221436
1657787293970787600,0.99178759765625,-0.2874884605407715,0.5455026626586914,-0.6981425881385803
1657787293972787500,0.993787353515625,-0.24839307367801666,0.607200026512146,-0.753120481967926
1657787293974787600,0.99578759765625,-0.1799761801958084,0.7006624341011047,-0.7806094288825989
1657787293976787500,0.997787353515625,-0.1396590620279312,0.779464066028595,-0.7971028089523315
1657787293978787600,0.99978759765625,-0.03825543448328972,0.959669291973114,-0.847804605960846
1657787293980786700,1.00178662109375,0.34170275926589966,1.2877039909362793,-1.0157924890518188
1657787293982785800,1.003785888671875,0.39729148149490356,1.3066407442092896,-1.037172794342041
1657787293984785200,1.00578515625,0.39729148149490356,1.3066407442092896,-1.037172794342041
1657787293986784300,1.0077841796875,0.39729148149490356,1.3066407442092896,-1.037172794342041
1657787293988784000,1.0097841796875,0.39729148149490356,1.3066407442092896,-1.037172794342041
1657787293990784300,1.0117841796875,0.49441906809806824,1.3292428255081177,-1.0695487260818481
1657787293992784100,1.0137841796875,0.5878814458847046,1.3353514671325684,-1.0890964269638062
1657787293994784000,1.015783935546875,0.6306419968605042,1.3274102210998535,-1.094594120979309
1657787293996784000,1.0177841796875,0.7137196660041809,1.2950342893600464,-1.095815896987915
1657787293998784000,1.019783935546875,0.7851909399032593,1.2211196422576904,-1.0903180837631226
1657787294000785400,1.021785400390625,0.820010244846344,1.1624765396118164,-1.0811551809310913
1657787294002786300,1.023786376953125,0.8847619295120239,1.007927656173706,-1.0573313236236572
1657787294004787200,1.025787109375,0.952567994594574,0.8161159753799438,-1.0206794738769531
1657787294006788000,1.0277880859375,0.9879981875419617,0.7098253965377808,-0.999299168586731
1657787294008788200,1.029788330078125,1.0545824766159058,0.4990769028663635,-0.9449321627616882
1657787294010789000,1.0317890625,1.1156690120697021,0.3072652220726013,-0.8789587020874023
1657787294012789200,1.033789306640625,1.1462122201919556,0.2223549485206604,-0.8435285687446594
1657787294014789000,1.0357890625,1.200579285621643,0.0708603709936142,-0.7671703696250916
1657787294016789200,1.037789306640625,1.2421181201934814,-0.05925392732024193,-0.6932557225227356
1657787294018789400,1.039789306640625,1.2598332166671753,-0.11728613078594208,-0.6517168879508972
1657787294020788500,1.04178857421875,1.2793809175491333,-0.44715335965156555,-0.339564710855484
1657787294022787600,1.04378759765625,1.2653310298919678,-0.4758640229701996,-0.30169108510017395
1657787294024786700,1.04578662109375,1.2653310298919678,-0.4758640229701996,-0.30169108510017395
1657787294026786800,1.047786865234375,1.2506701946258545,-0.5027421116828918,-0.26198482513427734
1657787294028786200,1.0497861328125,1.2329550981521606,-0.5253441333770752,-0.22166772186756134
1657787294030786300,1.051786376953125,1.2329550981521606,-0.5253441333770752,-0.22166772186756134
1657787294032786400,1.053786376953125,1.2134073972702026,-0.5485569834709167,-0.1837940812110901
1657787294034786300,1.055786376953125,1.1645382642745972,-0.5876523852348328,-0.09949467331171036
1657787294036786000,1.057785888671875,1.1376601457595825,-0.607810914516449,-0.05734497308731079
1657787294038785800,1.059785888671875,1.0771845579147339,-0.637132465839386,0.023900102823972702
1657787294040786700,1.06178662109375,1.0179306268692017,-0.6633996367454529,0.11186470091342926
1657787294042787600,1.06378759765625,0.9849438667297363,-0.6701191663742065,0.15767958760261536
1657787294044788200,1.065788330078125,0.923246443271637,-0.6908885836601257,0.2517528533935547
1657787294046789000,1.0677890625,0.8646034002304077,-0.7293730974197388,0.33971744775772095
1657787294048789200,1.069789306640625,0.8401687741279602,-0.7586946487426758,0.3812562823295593
1657787294050789600,1.07178955078125,0.7925212979316711,-0.836885392665863,0.4631122052669525
1657787294052789800,1.073789794921875,0.7509824633598328,-0.9388998746871948,0.5351943373680115
1657787294054790000,1.075789794921875,0.7369325757026672,-1.0012081861495972,0.568181037902832
1657787294056789500,1.07778955078125,0.7057784199714661,-1.1380419731140137,0.6274349689483643
1657787294058789400,1.079789306640625,0.6837872862815857,-1.291369080543518,0.6787476539611816
1657787294060788000,1.0817880859375,0.6721808314323425,-1.4569135904312134,0.7257842421531677
1657787294062788000,1.0837880859375,0.6691265106201172,-1.539380431175232,0.7477754354476929
1657787294064788000,1.0857880859375,0.6709591150283813,-1.7061465978622437,0.7935903072357178
1657787294066788000,1.0877880859375,0.6740134358406067,-1.7861700057983398,0.8125271201133728
1657787294068788500,1.08978857421875,0.6837872862815857,-1.9352210760116577,0.8577311635017395
1657787294070788900,1.091788818359375,0.7002806663513184,-2.063502788543701,0.901102602481842
1657787294072788700,1.093788818359375,0.7131088376045227,-2.1227567195892334,0.9224829077720642
1657787294074788900,1.095788818359375,0.7375434041023254,-2.22171688079834,0.9634108543395996
1657787294076788700,1.097788818359375,0.7638106346130371,-2.3078489303588867,0.9982301592826843
1657787294078788600,1.09978857421875,0.7790822386741638,-2.345111608505249,1.0153343677520752
1657787294080790000,1.1017900390625,0.810236394405365,-2.4159719944000244,1.0434341430664062
1657787294082790700,1.103790771484375,0.838947057723999,-2.4831671714782715,1.0654253959655762
1657787294084791600,1.10579150390625,0.8542186617851257,-2.5192081928253174,1.072144865989685
1657787294086792200,1.107792236328125,0.8810967803001404,-2.5949554443359375,1.0837513208389282
1657787294088793000,1.10979296875,0.9067531228065491,-2.6786441802978516,1.0855839252471924
1657787294090793000,1.11179296875,0.9183595180511475,-2.727513313293457,1.0874165296554565
1657787294092792800,1.113792724609375,0.9476810693740845,-2.838690757751465,1.0837513208389282
1657787294094793700,1.115793701171875,0.9776134490966797,-2.9523117542266846,1.0764209032058716
1657787294096794000,1.117794189453125,0.9941068291664124,-3.0048460960388184,1.0678688287734985
1657787294098794000,1.1197939453125,1.0264827013015747,-3.116023540496826,1.0562623739242554
1657787294100793300,1.12179345703125,1.0704649686813354,-3.2754595279693604,1.0281625986099243
1657787294102792400,1.12379248046875,1.084514856338501,-3.3255503177642822,1.0141127109527588
1657787294104792300,1.125792236328125,1.0979539155960083,-3.377473831176758,1.0031170845031738
1657787294106792400,1.12779248046875,1.1242210865020752,-3.4770450592041016,0.9737955331802368
1657787294108792300,1.129792236328125,1.1364384889602661,-3.525303363800049,0.9573022127151489
1657787294110792000,1.1317919921875,1.1688143014907837,-3.615100622177124,0.9279806613922119
1657787294112791800,1.133791748046875,1.2036336660385132,-3.693291187286377,0.8968265652656555
1657787294114791700,1.135791748046875,1.2231812477111816,-3.7287213802337646,0.8827766180038452
1657787294116792000,1.1377919921875,1.2616658210754395,-3.8001925945281982,0.8510116338729858
1657787294118792200,1.139792236328125,1.2964850664138794,-3.8741073608398438,0.8223009705543518
1657787294120792800,1.141792724609375,1.3056480884552002,-3.9150352478027344,0.8161923289299011
1657787294122793500,1.14379345703125,1.3239740133285522,-4.004832744598389,0.7966446280479431
1657787294124793600,1.145793701171875,1.3313044309616089,-4.109290599822998,0.7856490612030029
1657787294126793500,1.14779345703125,1.3245849609375,-4.16549015045166,0.7825947403907776
1657787294128793600,1.149793701171875,1.3117567300796509,-4.285830497741699,0.7813730239868164
1657787294130793200,1.151793212890625,1.2885438203811646,-4.402505874633789,0.7899250984191895
1657787294132793300,1.15379345703125,1.2714396715164185,-4.455040454864502,0.794812023639679
1657787294134793500,1.15579345703125,1.2372312545776367,-4.5546112060546875,0.8131380081176758
1657787294136793300,1.15779345703125,1.1963032484054565,-4.635245323181152,0.8418486714363098
1657787294138793500,1.15979345703125,1.1779773235321045,-4.667010307312012,0.8583420515060425
1657787294140792300,1.161792236328125,1.0246500968933105,-4.826446533203125,1.0299952030181885
1657787294142791400,1.16379150390625,1.0014371871948242,-4.8502702713012695,1.0568732023239136
1657787294144790500,1.16579052734375,1.0014371871948242,-4.8502702713012695,1.0568732023239136
1657787294146789600,1.16778955078125,1.0014371871948242,-4.8502702713012695,1.0568732023239136
1657787294148789500,1.16978955078125,0.9794460535049438,-4.871650218963623,1.0849729776382446
1657787294150789400,1.171789306640625,0.952567994594574,-4.895473957061768,1.1161271333694458
1657787294152789200,1.173789306640625,0.9067531228065491,-4.945565223693848,1.1723268032073975
1657787294154789600,1.17578955078125,0.8615490794181824,-4.9987101554870605,1.2218068838119507
1657787294156789500,1.17778955078125,0.8401687741279602,-5.024366855621338,1.2474632263183594
1657787294158789600,1.17978955078125,0.7937430143356323,-5.07445764541626,1.292667269706726
1657787294160790500,1.18179052734375,0.7503715753555298,-5.124548435211182,1.3268756866455078
1657787294162791200,1.183791259765625,0.7277695536613464,-5.148983001708984,1.3409255743026733
1657787294164791300,1.185791259765625,0.6862307190895081,-5.191743850708008,1.3671927452087402
1657787294166791200,1.187791259765625,0.6446918845176697,-5.221676349639893,1.377577543258667
1657787294168791300,1.189791259765625,0.6214790344238281,-5.233893394470215,1.38307523727417
1657787294170791700,1.191791748046875,0.590324878692627,-5.243056297302246,1.38307523727417
1657787294172791600,1.19379150390625,0.5616142153739929,-5.234504222869873,1.375133991241455
1657787294174791700,1.195791748046875,0.5506186485290527,-5.220454216003418,1.3696362972259521
1657787294176791800,1.197791748046875,0.5329035520553589,-5.186245918273926,1.3513102531433105
1657787294178791700,1.199791748046875,0.5188536643981934,-5.136765956878662,1.3262648582458496
1657787294180790800,1.201790771484375,0.4754822254180908,-4.887532711029053,1.19370698928833
1657787294182789600,1.20378955078125,0.4754822254180908,-4.887532711029053,1.19370698928833
1657787294184788700,1.205788818359375,0.4754822254180908,-4.887532711029053,1.19370698928833
1657787294186787800,1.207787841796875,0.4663192629814148,-4.836831092834473,1.1741594076156616
1657787294188787700,1.20978759765625,0.4663192629814148,-4.836831092834473,1.1741594076156616
1657787294190787600,1.21178759765625,0.4504367709159851,-4.712825298309326,1.1313987970352173
1657787294192787500,1.213787353515625,0.43821945786476135,-4.643186569213867,1.109407663345337
1657787294194786600,1.21578662109375,0.41378483176231384,-4.500854969024658,1.0660362243652344
1657787294196786700,1.21778662109375,0.3899610936641693,-4.347527980804443,1.0177778005599976
1657787294198786600,1.21978662109375,0.3765220642089844,-4.2668938636779785,0.9921215176582336
1657787294200787500,1.221787353515625,0.3465896546840668,-4.108068943023682,0.9438631534576416
1657787294202788400,1.223788330078125,0.3203224539756775,-3.9461894035339355,0.8937721848487854
1657787294204789200,1.225789306640625,0.3081051707267761,-3.8673877716064453,0.8675050139427185
1657787294206790100,1.2277900390625,0.2800053656101227,-3.713449716567993,0.8198575377464294
1657787294208790000,1.2297900390625,0.25618159770965576,-3.567453145980835,0.7746534943580627
1657787294210790400,1.231790283203125,0.24274258315563202,-3.4990360736846924,0.7532731890678406
1657787294212790800,1.233790771484375,0.2189188301563263,-3.3646457195281982,0.7190647721290588
1657787294214789600,1.23578955078125,0.1975385546684265,-3.244305372238159,0.6940192580223083
1657787294216789800,1.237789794921875,0.18715384602546692,-3.1862730979919434,0.6836345791816711
1657787294218789600,1.23978955078125,0.16638441383838654,-3.07692813873291,0.6708064079284668
1657787294220788700,1.241788818359375,0.08575020730495453,-2.7421741485595703,0.6872997879981995
1657787294222787800,1.243787841796875,0.08575020730495453,-2.7421741485595703,0.6872997879981995
1657787294224787200,1.245787109375,0.0771980956196785,-2.7152960300445557,0.6934084296226501
1657787294226786300,1.247786376953125,0.07047858089208603,-2.688417911529541,0.700738787651062
1657787294228786200,1.2497861328125,0.07047858089208603,-2.688417911529541,0.700738787651062
1657787294230785000,1.251784912109375,0.07047858089208603,-2.688417911529541,0.700738787651062
1657787294232785000,1.253784912109375,0.05398521572351456,-2.6444356441497803,0.7172321677207947
1657787294234785000,1.255784912109375,0.0466548316180706,-2.626720666885376,0.7282277345657349
1657787294236785000,1.257784912109375,0.03199406713247299,-2.599231719970703,0.7508297562599182
1657787294238784800,1.25978466796875,0.019776761531829834,-2.582738161087036,0.7770969271659851
1657787294240785700,1.26178564453125,0.016722436994314194,-2.5723536014556885,0.7899250984191895
1657787294242786600,1.26378662109375,0.004505131393671036,-2.5607471466064453,0.8186357617378235
1657787294244787500,1.265787353515625,-0.004046982154250145,-2.5521950721740723,0.8491790294647217
1657787294246788400,1.267788330078125,-0.0071013085544109344,-2.548529863357544,0.8638398051261902
1657787294248788000,1.2697880859375,-0.011377365328371525,-2.5466971397399902,0.8943830728530884
1657787294250788600,1.27178857421875,-0.01687515154480934,-2.545475482940674,0.9206503033638
1657787294252788500,1.27378857421875,-0.01687515154480934,-2.546086311340332,0.9353110194206238
1657787294254789600,1.27578955078125,-0.014431691728532314,-2.5442538261413574,0.9591348171234131
1657787294256789500,1.27778955078125,-0.005268712528049946,-2.536923408508301,0.9805150628089905
1657787294258789600,1.27978955078125,-0.0016035212902352214,-2.534479856491089,0.9847911596298218
1657787294260788700,1.281788818359375,0.019776761531829834,-2.529592990875244,0.9976193308830261
1657787294262788900,1.283788818359375,0.02710714563727379,-2.526538610458374,0.9988410472869873
1657787294264788700,1.285788818359375,0.03565925732254982,-2.5271494388580322,0.994564950466156
1657787294266788600,1.28778857421875,0.05093089118599892,-2.5247061252593994,0.9835693836212158
1657787294268788700,1.289788818359375,0.06436992436647415,-2.5222625732421875,0.9670760631561279
1657787294270788400,1.291788330078125,0.07108944654464722,-2.5173757076263428,0.9573022127151489
1657787294272788200,1.293788330078125,0.08025242388248444,-2.506380081176758,0.9340893030166626
1657787294274788400,1.295788330078125,0.09124799817800522,-2.4917192459106445,0.9078221321105957
1657787294276788200,1.297788330078125,0.0918588638305664,-2.479501962661743,0.8962156772613525
1657787294278788000,1.2997880859375,0.10041097551584244,-2.4556782245635986,0.8668941259384155
1657787294280789000,1.3017890625,0.1071304902434349,-2.4214699268341064,0.8412377834320068
1657787294282790100,1.3037900390625,0.10957395285367966,-2.4025330543518066,0.8271878957748413
1657787294284791000,1.305791015625,0.11568260937929153,-2.3603832721710205,0.8009206652641296
1657787294286792000,1.3077919921875,0.12056952714920044,-2.3127357959747314,0.7764860987663269
1657787294288791800,1.309791748046875,0.1175151988863945,-2.2907447814941406,0.7642687559127808
1657787294290792700,1.311792724609375,0.12118039280176163,-2.2369885444641113,0.7434993386268616
1657787294292793300,1.31379345703125,0.11873693019151688,-2.183232307434082,0.719675600528717
1657787294294793200,1.315793212890625,0.11873693019151688,-2.1563544273376465,0.7092909216880798
1657787294296793300,1.31779345703125,0.11568260937929153,-2.101376533508301,0.6921866536140442
1657787294298793200,1.319793212890625,0.11140654981136322,-2.0445659160614014,0.6750824451446533
1657787294300792600,1.32179248046875,0.102243572473526,-1.9639317989349365,0.6585890650749207
1657787294302791700,1.323791748046875,0.102243572473526,-1.9639317989349365,0.6585890650749207
1657787294304791800,1.325791748046875,0.0924697294831276,-1.9181169271469116,0.6488152742385864
1657787294306791700,1.327791748046875,0.08575020730495453,-1.8955148458480835,0.6445391774177551
1657787294308792000,1.3297919921875,0.06986771523952484,-1.8527542352676392,0.642706573009491
1657787294310791400,1.33179150390625,0.051541756838560104,-1.8154915571212769,0.6396522521972656
1657787294312791600,1.33379150390625,0.04604396969079971,-1.795332908630371,0.6402631402015686
1657787294314791400,1.33579150390625,0.025274548679590225,-1.7647897005081177,0.6414848566055298
1657787294316791300,1.337791259765625,0.006337726954370737,-1.7348573207855225,0.6482043862342834
1657787294318791400,1.33979150390625,-0.004046982154250145,-1.7214182615280151,0.6518695950508118
1657787294320792000,1.3417919921875,-0.027259862050414085,-1.6945401430130005,0.6591999530792236
1657787294322792200,1.343792236328125,-0.05047274008393288,-1.673770785331726,0.672639012336731
1657787294324792000,1.3457919921875,-0.05841398984193802,-1.6658295392990112,0.681801974773407
1657787294326792200,1.347792236328125,-0.07918340712785721,-1.6499470472335815,0.6976844668388367
1657787294328792000,1.3497919921875,-0.09873109310865402,-1.6389514207839966,0.719675600528717
1657787294330792200,1.351792236328125,-0.1048397496342659,-1.6377297639846802,0.7288386225700378
1657787294332793300,1.35379345703125,-0.12133310735225677,-1.6365079879760742,0.7502188682556152
1657787294334793200,1.355793212890625,-0.13721559941768646,-1.6383405923843384,0.7789295315742493
1657787294336793300,1.35779345703125,-0.14210252463817596,-1.642616629600525,0.7935903072357178
1657787294338793500,1.35979345703125,-0.15187637507915497,-1.644449234008789,0.8216901421546936
1657787294340792600,1.36179248046875,-0.16775886714458466,-1.6896532773971558,0.9438631534576416
1657787294342791700,1.363791748046875,-0.16775886714458466,-1.6896532773971558,0.9438631534576416
1657787294344790800,1.365790771484375,-0.16775886714458466,-1.6896532773971558,0.9438631534576416
1657787294346790000,1.367789794921875,-0.16409367322921753,-1.6957619190216064,0.9615782499313354
1657787294348790000,1.3697900390625,-0.16409367322921753,-1.6957619190216064,0.9615782499313354
1657787294350790100,1.3717900390625,-0.1653154045343399,-1.7165313959121704,0.9963975548744202
1657787294352790800,1.373790771484375,-0.16348281502723694,-1.7373007535934448,1.0348820686340332
1657787294354790700,1.375790771484375,-0.1598176211118698,-1.7482963800430298,1.0544297695159912
1657787294356790800,1.377790771484375,-0.15370896458625793,-1.7757853269577026,1.090470790863037
1657787294358790700,1.379790771484375,-0.14760030806064606,-1.7971655130386353,1.1283444166183472
1657787294360791300,1.381791259765625,-0.1396590620279312,-1.8136589527130127,1.150335669517517
1657787294362792200,1.383792236328125,-0.12683089077472687,-1.8387043476104736,1.1857657432556152
1657787294364792300,1.385792236328125,-0.11705705523490906,-1.8643606901168823,1.2248611450195312
1657787294366792400,1.38779248046875,-0.1097266674041748,-1.8808541297912598,1.243798017501831
1657787294368792300,1.389792236328125,-0.09201157838106155,-1.909564733505249,1.2773956060409546
1657787294370792400,1.39179248046875,-0.07857254147529602,-1.930334210395813,1.3109931945800781
1657787294372792600,1.39379248046875,-0.07002042979001999,-1.9419406652450562,1.3262648582458496
1657787294374792400,1.39579248046875,-0.04864014685153961,-1.9694294929504395,1.3586406707763672
1657787294376792600,1.39779248046875,-0.0339793786406517,-1.9950858354568481,1.3910164833068848
1657787294378792400,1.39979248046875,-0.02298380434513092,-2.012190103530884,1.405677318572998
1657787294380791600,1.40179150390625,0.08147415518760681,-2.104430675506592,1.496085286140442
1657787294382790700,1.403790771484375,0.08147415518760681,-2.104430675506592,1.496085286140442
1657787294384789800,1.405789794921875,0.09491318464279175,-2.1087067127227783,1.497917890548706
1657787294386788900,1.407788818359375,0.11018481850624084,-2.1117610931396484,1.5028048753738403
1657787294388788000,1.4097880859375,0.11018481850624084,-2.1117610931396484,1.5028048753738403
1657787294390787300,1.411787353515625,0.11018481850624084,-2.1117610931396484,1.5028048753738403
1657787294392785200,1.41378515625,0.12606731057167053,-2.1154263019561768,1.505859136581421
1657787294394785000,1.415784912109375,0.15722143650054932,-2.118480682373047,1.5040265321731567
1657787294396784600,1.41778466796875,0.17066048085689545,-2.116647958755493,1.5009722709655762
1657787294398784800,1.41978466796875,0.19937114417552948,-2.1203131675720215,1.4918092489242554
1657787294400784600,1.42178466796875,0.2286926805973053,-2.1148154735565186,1.4734833240509033
1657787294402784800,1.42378466796875,0.24579690396785736,-2.10809588432312,1.4630986452102661
1657787294404791000,1.425791015625,0.2745075821876526,-2.0983221530914307,1.4362205266952515
1657787294406801200,1.42780126953125,0.30627256631851196,-2.0916025638580322,1.4050663709640503
1657787294408801500,1.429801513671875,0.32643112540245056,-2.084882974624634,1.3873512744903564
1657787294410799000,1.431799072265625,0.36186128854751587,-2.0726656913757324,1.34825599193573
1657787294412800500,1.433800537109375,0.40278926491737366,-2.0586159229278564,1.302441120147705
1657787294414800600,1.435800537109375,0.4247804284095764,-2.0500638484954834,1.282893419265747
1657787294416800800,1.43780078125,0.4712061882019043,-2.0384573936462402,1.232802391052246
1657787294418801000,1.43980078125,0.5200753808021545,-2.021353006362915,1.1772136688232422
1657787294420798500,1.441798583984375,0.7546476721763611,-1.9932533502578735,0.9243154525756836
1657787294422796000,1.443796142578125,0.7546476721763611,-1.9932533502578735,0.9243154525756836
1657787294424793900,1.4457939453125,0.7876343727111816,-1.9932533502578735,0.8882744312286377
1657787294426791700,1.447791748046875,0.8206210732460022,-1.9889771938323975,0.8497899174690247
1657787294428790500,1.44979052734375,0.8206210732460022,-1.9889771938323975,0.8497899174690247
1657787294430788900,1.451788818359375,0.8206210732460022,-1.9889771938323975,0.8497899174690247
1657787294432788700,1.453788818359375,0.8536078333854675,-1.9889771938323975,0.8113054037094116
1657787294434788900,1.455788818359375,0.9208030104637146,-1.9871445894241333,0.7355580925941467
1657787294436788700,1.457788818359375,0.9574549198150635,-1.985922932624817,0.6946301460266113
1657787294438788900,1.459788818359375,1.030147910118103,-1.9785925149917603,0.6146067976951599
1657787294440789000,1.4617890625,1.1034517288208008,-1.9688186645507812,0.5333617329597473
1657787294442820900,1.46382080078125,1.1773663759231567,-1.948660135269165,0.4484514594078064
1657787294444821000,1.465821044921875,1.2158509492874146,-1.9370536804199219,0.406912624835968
1657787294446820900,1.46782080078125,1.2915982007980347,-1.9083430767059326,0.3213914632797241
1657787294448821000,1.469821044921875,1.3655128479003906,-1.8771889209747314,0.2315942794084549
1657787294450820900,1.47182080078125,1.4046082496643066,-1.8613064289093018,0.19310978055000305
1657787294452822000,1.473822021484375,1.4809664487838745,-1.8277088403701782,0.10209085047245026
1657787294454822000,1.47582177734375,1.5182292461395264,-1.8093829154968262,0.05688682571053505
1657787294456821800,1.47782177734375,1.5945873260498047,-1.7721201181411743,-0.02863430790603161
1657787294458822400,1.479822509765625,1.6672803163528442,-1.7342463731765747,-0.11293371021747589
1657787294460819700,1.48181982421875,1.7821229696273804,-1.6798794269561768,-0.24488060176372528
1657787294462819600,1.483819580078125,1.7821229696273804,-1.6798794269561768,-0.24488060176372528
1657787294464819500,1.4858193359375,1.8584811687469482,-1.6493362188339233,-0.33223432302474976
1657787294466821400,1.4878212890625,1.8963547945022583,-1.6340645551681519,-0.37255144119262695
1657787294468821200,1.4898212890625,1.970880389213562,-1.6016886234283447,-0.46295949816703796
1657787294470821000,1.491821044921875,2.047849416732788,-1.567480206489563,-0.5460371971130371
1657787294472821000,1.493821044921875,2.086333990097046,-1.5534303188323975,-0.5863542556762695
1657787294474821000,1.495821044921875,2.1608593463897705,-1.5210545063018799,-0.6675993800163269
1657787294476821000,1.497821044921875,2.237828493118286,-1.4929546117782593,-0.7427358031272888
1657787294478820900,1.49982080078125,2.273258686065674,-1.4795156717300415,-0.7781659364700317
1657787294480821000,1.501821044921875,2.346562385559082,-1.4495831727981567,-0.8520806431770325
1657787294482820900,1.50382080078125,2.421698808670044,-1.4190399646759033,-0.9211084246635437
1657787294484820700,1.50582080078125,2.4595725536346436,-1.4025466442108154,-0.9559277296066284
1657787294486820900,1.50782080078125,2.532876491546631,-1.3658946752548218,-1.0206794738769531
1657787294488820700,1.50982080078125,2.6043477058410645,-1.3255776166915894,-1.0835986137390137
1657787294490820900,1.51182080078125,2.642221212387085,-1.3029755353927612,-1.1184178590774536
1657787294492820700,1.51382080078125,2.706973075866699,-1.2620476484298706,-1.180726170539856
1657787294494820900,1.51582080078125,2.7723355293273926,-1.218676209449768,-1.246699571609497
1657787294496821000,1.517821044921875,2.8077657222747803,-1.197906732559204,-1.27724289894104
1657787294498820900,1.51982080078125,2.865797996520996,-1.156978726387024,-1.3383294343948364
1657787294500820000,1.521820068359375,2.987971067428589,-1.0806206464767456,-1.4531720876693726
1657787294502818000,1.523818115234375,2.987971067428589,-1.0806206464767456,-1.4531720876693726
1657787294504818200,1.525818115234375,3.0179033279418945,-1.0580185651779175,-1.4812718629837036
1657787294506818600,1.527818603515625,3.0734920501708984,-1.017701506614685,-1.5374714136123657
1657787294508818400,1.529818359375,3.105867862701416,-0.9950994849205017,-1.5643495321273804
1657787294510818300,1.531818359375,3.163900136947632,-0.9547823667526245,-1.617494821548462
1657787294512818000,1.53381787109375,3.2213215827941895,-0.9144652485847473,-1.666364073753357
1657787294514818000,1.535818115234375,3.247588634490967,-0.8936958312988281,-1.6877442598342896
1657787294516818000,1.53781787109375,3.304399251937866,-0.8521569967269897,-1.7384461164474487
1657787294518817800,1.53981787109375,3.3605988025665283,-0.8112290501594543,-1.7842609882354736
1657787294520818700,1.541818603515625,3.3832008838653564,-0.789237916469574,-1.8068630695343018
1657787294522818800,1.54381884765625,3.432070016860962,-0.750142514705658,-1.8484019041061401
1657787294524818700,1.545818603515625,3.4784958362579346,-0.7055493593215942,-1.8887189626693726
1657787294526818000,1.547818115234375,3.501708745956421,-0.6872233748435974,-1.9070448875427246
1657787294528818000,1.54981787109375,3.54935622215271,-0.646906316280365,-1.9479728937149048
1657787294530818000,1.551818115234375,3.5896732807159424,-0.6120869517326355,-1.9870682954788208
1657787294532818000,1.55381787109375,3.611053466796875,-0.5913175344467163,-2.0066158771514893
1657787294534818300,1.555818359375,3.655646800994873,-0.5607742667198181,-2.0457112789154053
1657787294536818200,1.557818115234375,3.699629068374634,-0.5338962078094482,-2.081752300262451
1657787294538818300,1.559818359375,3.7246744632720947,-0.5229006409645081,-2.1000783443450928
1657787294540817400,1.5618173828125,3.889608144760132,-0.45692721009254456,-2.220418691635132
1657787294542816500,1.56381640625,3.9140427112579346,-0.44837507605552673,-2.232025146484375
1657787294544815600,1.565815673828125,3.9140427112579346,-0.44837507605552673,-2.232025146484375
1657787294546814700,1.567814697265625,3.9140427112579346,-0.44837507605552673,-2.232025146484375
1657787294548814600,1.569814697265625,3.943364143371582,-0.4404338300228119,-2.2491295337677
1657787294550814700,1.571814697265625,3.9647445678710938,-0.43249258399009705,-2.2662336826324463
1657787294552814600,1.573814697265625,4.013613700866699,-0.42210787534713745,-2.293722629547119
1657787294554814500,1.575814453125,4.0563740730285645,-0.4153883755207062,-2.3199899196624756
1657787294556814300,1.577814453125,4.078976154327393,-0.41172316670417786,-2.3334288597106934
1657787294558814500,1.579814453125,4.123569488525391,-0.4105014503002167,-2.360306978225708
1657787294560815400,1.5818154296875,4.166329860687256,-0.41233405470848083,-2.385352373123169
1657787294562816000,1.58381591796875,4.191375732421875,-0.4153883755207062,-2.3981804847717285
1657787294564816100,1.585816162109375,4.2378010749816895,-0.42149701714515686,-2.4256694316864014
1657787294566815700,1.587815673828125,4.287281513214111,-0.4245513379573822,-2.4507150650024414
1657787294568815900,1.58981591796875,4.311105251312256,-0.42760565876960754,-2.463543176651001
1657787294570816000,1.59181591796875,4.362417697906494,-0.4294382631778717,-2.4953081607818604
1657787294572816100,1.593816162109375,4.409454345703125,-0.42577308416366577,-2.521575450897217
1657787294574816300,1.595816162109375,4.432056427001953,-0.4239404797554016,-2.533792734146118
1657787294576816000,1.597816162109375,4.477871417999268,-0.4251621961593628,-2.566779375076294
1657787294578815700,1.599815673828125,4.524908065795898,-0.4245513379573822,-2.592435836791992
1657787294580814800,1.60181494140625,4.6812896728515625,-0.44837507605552673,-2.70361328125
1657787294582814000,1.60381396484375,4.7014479637146,-0.45326200127601624,-2.7170522212982178
1657787294584813000,1.60581298828125,4.716108798980713,-0.4605923891067505,-2.7323238849639893
1657787294586812200,1.607812255859375,4.716108798980713,-0.4605923891067505,-2.7323238849639893
1657787294588811300,1.609811279296875,4.716108798980713,-0.4605923891067505,-2.7323238849639893
1657787294590810400,1.611810302734375,4.733823776245117,-0.4648684561252594,-2.7475955486297607
1657787294592810500,1.613810546875,4.733823776245117,-0.4648684561252594,-2.7475955486297607
1657787294594810400,1.615810302734375,4.766199588775635,-0.48197266459465027,-2.773862838745117
1657787294596810000,1.61781005859375,4.797964572906494,-0.4990769028663635,-2.806849479675293
1657787294598810000,1.61981005859375,4.813236236572266,-0.5094616413116455,-2.823953628540039
1657787294600810000,1.62181005859375,4.843779563903809,-0.5259549617767334,-2.854496955871582
1657787294602810000,1.62381005859375,4.872490406036377,-0.5442809462547302,-2.888094425201416
1657787294604810000,1.62581005859375,4.886539936065674,-0.5510004758834839,-2.9039769172668457
1657787294606810000,1.62781005859375,4.914029121398926,-0.5687155723571777,-2.938796281814575
1657787294608807000,1.629806884765625,4.939074516296387,-0.588263213634491,-2.9760591983795166
1657787294610806500,1.631806640625,4.950070381164551,-0.5992587804794312,-2.9919416904449463
1657787294612806400,1.633806396484375,4.973282814025879,-0.6188064813613892,-3.027371883392334
1657787294614806500,1.635806640625,4.997106552124023,-0.6426302194595337,-3.0658562183380127
1657787294616806400,1.637806396484375,5.0081024169921875,-0.656069278717041,-3.082960605621338
1657787294618806300,1.63980615234375,5.030704498291016,-0.6860016584396362,-3.1202232837677
1657787294620803600,1.641803466796875,5.136384010314941,-0.807563841342926,-3.2546136379241943
1657787294622801200,1.64380126953125,5.154709815979004,-0.817337691783905,-3.2668309211730957
1657787294624798700,1.645798828125,5.174257755279541,-0.8332201838493347,-3.2778265476226807
1657787294626796800,1.647796875,5.174257755279541,-0.8332201838493347,-3.2778265476226807
1657787294628795600,1.649795654296875,5.174257755279541,-0.8332201838493347,-3.2778265476226807
1657787294630795800,1.651795654296875,5.191361904144287,-0.8429940342903137,-3.289433002471924
1657787294632796000,1.6537958984375,5.213963985443115,-0.8546004891395569,-3.2973742485046387
1657787294634795800,1.655795654296875,5.235344409942627,-0.8600982427597046,-3.3053154945373535
1657787294636795600,1.657795654296875,5.281158924102783,-0.8735373020172119,-3.3169219493865967
1657787294638794500,1.65979443359375,5.336136817932129,-0.8827002644538879,-3.318143606185913
1657787294640817400,1.6618173828125,5.363015174865723,-0.8845328688621521,-3.3163111209869385
1657787294642817500,1.663817626953125,5.419825553894043,-0.8888089060783386,-3.308980703353882
1657787294644811500,1.6658115234375,5.47785758972168,-0.8918632864952087,-3.2949306964874268
1657787294646811400,1.667811279296875,5.506568431854248,-0.8943067193031311,-3.2857677936553955
1657787294648811500,1.6698115234375,5.562157154083252,-0.8936958312988281,-3.258889675140381
1657787294650811400,1.671811279296875,5.614691734313965,-0.8924741148948669,-3.2277355194091797
1657787294652811500,1.6738115234375,5.638515472412109,-0.8936958312988281,-3.211242198944092
1657787294654811400,1.675811279296875,5.684329986572266,-0.8949176073074341,-3.1660382747650146
1657787294656811300,1.677811279296875,5.7252583503723145,-0.9010262489318848,-3.1183907985687256
1657787294658811100,1.67981103515625,5.739307880401611,-0.9028588533401489,-3.0896799564361572
1657787294660808700,1.68180859375,5.775349140167236,-0.9169087409973145,-2.9931633472442627
1657787294662806000,1.683805908203125,5.785733699798584,-0.9199630618095398,-2.960176706314087
1657787294664806100,1.68580615234375,5.794285774230957,-0.9242390990257263,-2.924746513366699
1657787294666806000,1.687805908203125,5.80283784866333,-0.9291260242462158,-2.8447229862213135
1657787294668806000,1.689805908203125,5.799783706665039,-0.930347740650177,-2.756758451461792
1657787294670805500,1.691805419921875,5.794285774230957,-0.93095862865448,-2.712165355682373
1657787294672805400,1.693805419921875,5.7790141105651855,-0.9321803450584412,-2.614426851272583
1657787294674805500,1.695805419921875,5.755190372467041,-0.9327912330627441,-2.5148558616638184
1657787294676805400,1.697805419921875,5.738086223602295,-0.9291260242462158,-2.4629323482513428
1657787294678805200,1.69980517578125,5.698990821838379,-0.9248499870300293,-2.351754903793335
1657787294680805400,1.701805419921875,5.655008792877197,-0.9132435321807861,-2.2338578701019287
1657787294682805200,1.70380517578125,5.631795883178711,-0.9071348905563354,-2.1752147674560547
1657787294684805000,1.70580517578125,5.576817989349365,-0.8918632864952087,-2.0487656593322754
1657787294686805200,1.70780517578125,5.510233402252197,-0.8680394887924194,-1.920483946800232
1657787294688805000,1.70980517578125,5.478468418121338,-0.8576548099517822,-1.8538997173309326
1657787294690805200,1.71180517578125,5.405775547027588,-0.826500654220581,-1.7188984155654907
1657787294692805000,1.71380517578125,5.324530601501465,-0.789237916469574,-1.58023202419281
1657787294694804700,1.7158046875,5.279937267303467,-0.769079327583313,-1.5093716382980347
1657787294696804600,1.7178046875,5.185253143310547,-0.7367035150527954,-1.370705246925354
1657787294698804700,1.7198046875,5.079573631286621,-0.6994407176971436,-1.225319266319275
1657787294700803800,1.721803955078125,4.90975284576416,-0.6530149579048157,-1.00907301902771
1657787294702803000,1.723802978515625,4.848055839538574,-0.6359107494354248,-0.9369909167289734
1657787294704803300,1.72580322265625,4.7845258712768555,-0.6194173693656921,-0.8655197024345398
1657787294706803200,1.72780322265625,4.714276313781738,-0.607200026512146,-0.7946593165397644
1657787294708803300,1.72980322265625,4.576831340789795,-0.5852088928222656,-0.6547712087631226
1657787294710803000,1.731802978515625,4.430834770202637,-0.5687155723571777,-0.5148830413818359
1657787294712803000,1.733802978515625,4.355698108673096,-0.5589417219161987,-0.44768786430358887
1657787294714803000,1.735802978515625,4.19931697845459,-0.5522221922874451,-0.31207579374313354
1657787294716803000,1.737802978515625,4.039880752563477,-0.5479460954666138,-0.18073976039886475
1657787294718803000,1.739802978515625,3.9586358070373535,-0.5467243790626526,-0.11598803848028183
1657787294720803800,1.741803955078125,3.78942608833313,-0.5461135506629944,0.008017606101930141
1657787294722804700,1.7438046875,3.6147186756134033,-0.5528330206871033,0.12713633477687836
1657787294724804900,1.745804931640625,3.5255324840545654,-0.5558874011039734,0.18211419880390167
1657787294726805000,1.747804931640625,3.3416619300842285,-0.5662720799446106,0.29329168796539307
1657787294728804600,1.7498046875,3.1467959880828857,-0.5748242139816284,0.39530616998672485
1657787294730805000,1.751804931640625,3.052111864089966,-0.5797111392021179,0.4435645341873169
1657787294732805000,1.75380517578125,2.852358818054199,-0.5858197808265686,0.5345834493637085
1657787294734805000,1.755804931640625,2.653827667236328,-0.588874101638794,0.6201046109199524
1657787294736805000,1.75780517578125,2.5548675060272217,-0.5876523852348328,0.6579782366752625
1657787294738805000,1.759804931640625,2.3563363552093506,-0.5778785347938538,0.7251734137535095
1657787294740804000,1.76180419921875,1.7204256057739258,-0.4495968222618103,0.8998808860778809
1657787294742803200,1.76380322265625,1.7204256057739258,-0.4495968222618103,0.8998808860778809
1657787294744802600,1.765802490234375,1.7204256057739258,-0.4495968222618103,0.8998808860778809
1657787294746801700,1.7678017578125,1.6422348022460938,-0.4300491213798523,0.9157633781433105
1657787294748801500,1.769801513671875,1.6422348022460938,-0.4300491213798523,0.9157633781433105
1657787294750801400,1.771801513671875,1.493794560432434,-0.39584067463874817,0.9316458702087402
1657787294752801500,1.773801513671875,1.3667346239089966,-0.35124751925468445,0.9499717950820923
1657787294754802000,1.775802001953125,1.3044264316558838,-0.32009339332580566,0.9554696083068848
1657787294756801800,1.7778017578125,1.1932488679885864,-0.25473082065582275,0.965854287147522
1657787294758802000,1.779802001953125,1.0906234979629517,-0.17837265133857727,0.9670760631561279
1657787294760802800,1.781802734375,1.045419454574585,-0.14233160018920898,0.9689086079597473
1657787294762803700,1.7838037109375,0.96173095703125,-0.06230825558304787,0.9621891379356384
1657787294764803800,1.785803955078125,0.8914814591407776,0.013439035043120384,0.9524152874946594
1657787294766803700,1.7878037109375,0.8597164750099182,0.05192354694008827,0.9444740414619446
1657787294768803800,1.789803955078125,0.8090146780014038,0.11667526513338089,0.9157633781433105
1657787294770804000,1.791803955078125,0.7766388058662415,0.17837265133857727,0.8901070356369019
1657787294772803800,1.793803955078125,0.7644215226173401,0.20952677726745605,0.8662832975387573
1657787294774804000,1.795803955078125,0.7515933513641357,0.26083946228027344,0.8277987837791443
1657787294776803800,1.797803955078125,0.7497607469558716,0.31642818450927734,0.7825947403907776
1657787294778803700,1.7998037109375,0.7509824633598328,0.3494149148464203,0.7606036067008972
1657787294780802800,1.801802734375,0.8499426245689392,0.5955936312675476,0.5089271068572998
1657787294782802000,1.803802001953125,0.8499426245689392,0.5955936312675476,0.5089271068572998
1657787294784801000,1.805801025390625,0.8670468330383301,0.6096435189247131,0.47655123472213745
1657787294786800000,1.807800048828125,0.8835402131080627,0.6310238242149353,0.4441753923892975
1657787294788799700,1.8097998046875,0.8835402131080627,0.6310238242149353,0.4441753923892975
1657787294790798300,1.81179833984375,0.8835402131080627,0.6310238242149353,0.4441753923892975
1657787294792798500,1.813798583984375,0.8988118767738342,0.6481280326843262,0.41546472907066345
1657787294794798300,1.81579833984375,0.9317985773086548,0.6866125464439392,0.3513238728046417
1657787294796798500,1.817798583984375,0.9544005990028381,0.6988298296928406,0.3232240676879883
1657787294798798300,1.81979833984375,0.9898307919502258,0.7415903806686401,0.2651918828487396
1657787294800789500,1.82178955078125,1.0283153057098389,0.79840087890625,0.20899227261543274
1657787294802798300,1.82379833984375,1.0448086261749268,0.8301658630371094,0.18394680321216583
1657787294804802800,1.825802734375,1.0771845579147339,0.8906415104866028,0.1301906555891037
1657787294806806000,1.827805908203125,1.1095603704452515,0.9370672702789307,0.06788240373134613
1657787294808808200,1.82980810546875,1.1217776536941528,0.9529497623443604,0.03306308016180992
1657787294810810000,1.83181005859375,1.1468231678009033,0.9706648588180542,-0.03413209691643715
1657787294812811300,1.833811279296875,1.1645382642745972,0.9841039180755615,-0.10315986722707748
1657787294814813200,1.835813232421875,1.1688143014907837,0.9963212013244629,-0.13614659011363983
1657787294816814000,1.83781396484375,1.1737011671066284,1.0390818119049072,-0.18990273773670197
1657787294818815000,1.83981494140625,1.1755337715148926,1.10139000415802,-0.23510676622390747
1657787294820813300,1.841813232421875,1.171257734298706,1.3200798034667969,-0.3896556794643402
1657787294822811600,1.843811767578125,1.171257734298706,1.3200798034667969,-0.3896556794643402
1657787294824810200,1.845810302734375,1.1737011671066284,1.3426817655563354,-0.4067598879337311
1657787294826808800,1.847808837890625,1.1785881519317627,1.3646728992462158,-0.42325326800346375
1657787294828807400,1.849807373046875,1.1785881519317627,1.3646728992462158,-0.42325326800346375
1657787294830807000,1.85180712890625,1.1785881519317627,1.3646728992462158,-0.42325326800346375
1657787294832807400,1.853807373046875,1.182253360748291,1.3866641521453857,-0.4360814392566681
1657787294834807800,1.855807861328125,1.1938598155975342,1.4330898523330688,-0.4654029607772827
1657787294836808400,1.857808349609375,1.2066879272460938,1.4776830673217773,-0.49411362409591675
1657787294838808000,1.85980810546875,1.2121857404708862,1.4984524250030518,-0.5075526833534241
1657787294840819200,1.861819091796875,1.2256247997283936,1.5302174091339111,-0.5350415706634521
1657787294842820000,1.863820068359375,1.2353986501693726,1.5528194904327393,-0.5594761967658997
1657787294844820700,1.86582080078125,1.2390637397766113,1.5619823932647705,-0.5704717636108398
1657787294846821000,1.867821044921875,1.246394157409668,1.585806131362915,-0.5906303524971008
1657787294848821200,1.8698212890625,1.2512811422348022,1.606575608253479,-0.6052911281585693
1657787294850822400,1.871822509765625,1.2518919706344604,1.615127682685852,-0.6126214861869812
1657787294852822500,1.873822509765625,1.2488375902175903,1.6352862119674683,-0.6199518442153931
1657787294854822700,1.87582275390625,1.2445615530014038,1.6615535020828247,-0.6181192994117737
1657787294856822800,1.87782275390625,1.2408963441848755,1.6768250465393066,-0.621173620223999
1657787294858823000,1.879822998046875,1.2353986501693726,1.7104226350784302,-0.6138432025909424
1657787294860820200,1.8818203125,1.2237921953201294,1.7629570960998535,-0.6071236729621887
1657787294862820400,1.8838203125,1.2237921953201294,1.7629570960998535,-0.6071236729621887
1657787294864820200,1.8858203125,1.2158509492874146,1.796554684638977,-0.6034585237503052
1657787294866820400,1.8878203125,1.2042444944381714,1.8301522731781006,-0.5949063897132874
1657787294868820200,1.8898203125,1.1950814723968506,1.8472565412521362,-0.5942955017089844
1657787294870821400,1.8918212890625,1.1804207563400269,1.872912883758545,-0.5906303524971008
1657787294872821200,1.8938212890625,1.162705659866333,1.8955148458480835,-0.5869651436805725
1657787294874821400,1.8958212890625,1.151710033416748,1.9040669202804565,-0.5869651436805725
1657787294876821500,1.897821533203125,1.134605884552002,1.9230037927627563,-0.5875760316848755
1657787294878821400,1.8998212890625,1.1095603704452515,1.9321668148040771,-0.5839108228683472
1657787294880821500,1.901821533203125,1.0997865200042725,1.9339994192123413,-0.5839108228683472
1657787294882821600,1.903821533203125,1.075962781906128,1.93766450881958,-0.5851325392723083
1657787294884821500,1.905821533203125,1.0539716482162476,1.9333884716033936,-0.5832999348640442
1657787294886821600,1.907821533203125,1.0356457233428955,1.9266690015792847,-0.582078218460083
1657787294888821800,1.90982177734375,1.0081567764282227,1.910786509513855,-0.5784130096435547
1657787294890821600,1.911821533203125,0.9757808446884155,1.8875735998153687,-0.572915256023407
1657787294892821800,1.91382177734375,0.9605092406272888,1.8698585033416748,-0.5680283308029175
1657787294894821600,1.915821533203125,0.9250790476799011,1.8295414447784424,-0.5576435923576355
1657787294896821800,1.91782177734375,0.9085856676101685,1.7727309465408325,-0.5503132343292236
1657787294898821600,1.919821533203125,0.8713229298591614,1.7409659624099731,-0.533819854259491
1657787294900820700,1.92182080078125,0.7967973351478577,1.6139060258865356,-0.48250719904899597
1657787294902820000,1.923820068359375,0.7967973351478577,1.6139060258865356,-0.48250719904899597
1657787294904820000,1.925820068359375,0.7784714102745056,1.5839735269546509,-0.4715116024017334
1657787294906819600,1.927819580078125,0.7424303293228149,1.5302174091339111,-0.4409683346748352
1657787294908819500,1.9298193359375,0.7253261208534241,1.50211763381958,-0.4256967306137085
1657787294910819300,1.9318193359375,0.6935611367225647,1.453248381614685,-0.391488254070282
1657787294912819500,1.9338193359375,0.6611852645874023,1.4013248682022095,-0.35727980732917786
1657787294914819300,1.9358193359375,0.6495788097381592,1.3750576972961426,-0.3389538526535034
1657787294916819200,1.937819091796875,0.6239224672317505,1.3194689750671387,-0.30657798051834106
1657787294918819300,1.9398193359375,0.600098729133606,1.2638801336288452,-0.2748129963874817
1657787294920820200,1.9418203125,0.5897140502929688,1.2357803583145142,-0.26015225052833557
1657787294922820400,1.9438203125,0.5713880658149719,1.179580807685852,-0.23083069920539856
1657787294924820500,1.945820556640625,0.5561164617538452,1.1258246898651123,-0.20639608800411224
1657787294926820400,1.9478203125,0.5463426113128662,1.0965031385421753,-0.19173532724380493
1657787294928820500,1.949820556640625,0.5322927236557007,1.0458012819290161,-0.17218764126300812
1657787294930820000,1.951820068359375,0.516410231590271,0.9957103729248047,-0.15019649267196655
1657787294932820000,1.953820068359375,0.5078580975532532,0.9731083512306213,-0.13981178402900696
1657787294934820000,1.955820068359375,0.4907538592815399,0.9260717034339905,-0.12209668755531311
1657787294936820000,1.957820068359375,0.47426050901412964,0.8802568316459656,-0.10865765810012817
1657787294938820000,1.959820068359375,0.4650975167751312,0.8558222055435181,-0.10377073287963867
1657787294940819200,1.961819091796875,0.39790233969688416,0.7110471725463867,-0.07994698733091354
1657787294942818300,1.963818359375,0.3856850564479828,0.7110471725463867,-0.07994698733091354
1657787294944817200,1.965817138671875,0.3856850564479828,0.7110471725463867,-0.07994698733091354
1657787294946816500,1.96781640625,0.3856850564479828,0.7110471725463867,-0.07994698733091354
1657787294948817400,1.9698173828125,0.3746894598007202,0.6982190012931824,-0.0817795842885971
1657787294950817500,1.971817626953125,0.36308303475379944,0.6866125464439392,-0.07872525602579117
1657787294952817700,1.973817626953125,0.34353533387184143,0.6670648455619812,-0.07933612167835236
1657787294954817500,1.975817626953125,0.32765284180641174,0.6511823534965515,-0.07994698733091354
1657787294956817700,1.977817626953125,0.3191007375717163,0.6444628238677979,-0.07933612167835236
1657787294958817500,1.979817626953125,0.3050508201122284,0.6243042945861816,-0.07444920390844345
1657787294960818400,1.981818359375,0.2946661114692688,0.607200026512146,-0.07750352472066879
1657787294962819300,1.9838193359375,0.29100093245506287,0.5937610268592834,-0.07506006956100464
1657787294964819500,1.9858193359375,0.2848922908306122,0.5742133259773254,-0.07628180086612701
1657787294966819800,1.98781982421875,0.2842814028263092,0.5534439086914062,-0.08116871863603592
1657787294968819700,1.98981982421875,0.2842814028263092,0.5412266254425049,-0.08300131559371948
1657787294970819800,1.99181982421875,0.2855031490325928,0.5204572081565857,-0.09399688988924026
1657787294972819700,1.99381982421875,0.28733575344085693,0.4948008358478546,-0.10682506114244461
1657787294974819800,1.99581982421875,0.28733575344085693,0.484416127204895,-0.11354457587003708
1657787294976819700,1.99781982421875,0.29100093245506287,0.45692721009254456,-0.13003793358802795
1657787294978819800,1.99981982421875,0.29588785767555237,0.4349360466003418,-0.14653129875659943
1657787294980818700,2.001818603515625,0.30077478289604187,0.3689626157283783,-0.21006128191947937
1657787294982817800,2.00381787109375,0.3038291037082672,0.36713001132011414,-0.22044599056243896
1657787294984817000,2.00581689453125,0.3038291037082672,0.36529740691185,-0.22594378888607025
1657787294986816000,2.00781591796875,0.3038291037082672,0.36529740691185,-0.22594378888607025
1657787294988815000,2.009815185546875,0.3038291037082672,0.36529740691185,-0.22594378888607025
1657787294990814200,2.011814208984375,0.3038291037082672,0.36529740691185,-0.23205243051052094
1657787294992814000,2.01381396484375,0.3038291037082672,0.36529740691185,-0.23205243051052094
1657787294994814200,2.015814208984375,0.3038291037082672,0.3677408695220947,-0.24732406437397003
1657787294996814000,2.01781396484375,0.3001639246940613,0.38117989897727966,-0.258930504322052
1657787294998814200,2.019814208984375,0.2983313202857971,0.3842342495918274,-0.26137396693229675
1657787295000815000,2.021815185546875,0.2952769994735718,0.3988949954509735,-0.2680934965610504
1657787295002815200,2.023815185546875,0.2903900742530823,0.4098905920982361,-0.27175867557525635
1657787295004812000,2.02581201171875,0.2885574698448181,0.41661009192466736,-0.27114781737327576
1657787295006812200,2.027812255859375,0.28122708201408386,0.42760565876960754,-0.26687175035476685
1657787295008812000,2.02981201171875,0.2726749777793884,0.43737950921058655,-0.2534327208995819
1657787295010812200,2.031812255859375,0.2683989107608795,0.4398229718208313,-0.24488060176372528
1657787295012814800,2.03381494140625,0.2549598813056946,0.4453207552433014,-0.22594378888607025
1657787295014814700,2.035814697265625,0.2439643144607544,0.4447098970413208,-0.20150917768478394
1657787295016814600,2.037814697265625,0.23785565793514252,0.4440990388393402,-0.1880701333284378
1657787295018814500,2.039814453125,0.22197316586971283,0.4386012554168701,-0.15569427609443665
1657787295020812300,2.041812255859375,0.14989106357097626,0.37568211555480957,0.008017606101930141
1657787295022809900,2.043809814453125,0.1419498175382614,0.3604104816913605,0.032452214509248734
1657787295024807400,2.045807373046875,0.13156510889530182,0.34208452701568604,0.05688682571053505
1657787295026806000,2.047805908203125,0.13156510889530182,0.34208452701568604,0.05688682571053505
1657787295028804000,2.04980419921875,0.12301298975944519,0.32559117674827576,0.08132143318653107
1657787295030802400,2.051802490234375,0.12301298975944519,0.32559117674827576,0.08132143318653107
1657787295032802300,2.05380224609375,0.11446087807416916,0.30543261766433716,0.10697777569293976
1657787295034802400,2.055802490234375,0.1071304902434349,0.2871066629886627,0.12835806608200073
1657787295036802300,2.05780224609375,0.0924697294831276,0.24373523890972137,0.17967073619365692
1657787295038802400,2.059802490234375,0.08147415518760681,0.2021963894367218,0.2267073690891266
1657787295040802300,2.06180224609375,0.07597636431455612,0.17959438264369965,0.2505311071872711
1657787295042802400,2.063802490234375,0.06864598393440247,0.13377949595451355,0.29878947138786316
1657787295044802300,2.06580224609375,0.06314819306135178,0.08674286305904388,0.3421608805656433
1657787295046802000,2.067802001953125,0.06253732740879059,0.06230825558304787,0.3629303276538849
1657787295048801800,2.0698017578125,0.06436992436647415,0.009162978269159794,0.406912624835968
1657787295050801700,2.0718017578125,0.06620252132415771,-0.04581489413976669,0.4435645341873169
1657787295052801500,2.073801513671875,0.06864598393440247,-0.0708603709936142,0.46066874265670776
1657787295054801200,2.07580126953125,0.0771980956196785,-0.12828169763088226,0.49182286858558655
1657787295056801000,2.077801025390625,0.08758280426263809,-0.18509216606616974,0.5223661661148071
1657787295058801200,2.07980126953125,0.09124799817800522,-0.21380282938480377,0.5370268821716309
1657787295060798500,2.081798583984375,0.10407616943120956,-0.30115658044815063,0.5767331719398499
1657787295062798300,2.08379833984375,0.11079568415880203,-0.33108896017074585,0.5889504551887512
1657787295064798200,2.085798095703125,0.11507174372673035,-0.3591887652873993,0.6023895144462585
1657787295066798000,2.087798095703125,0.12301298975944519,-0.4184426963329315,0.6201046109199524
1657787295068798000,2.0897978515625,0.12912164628505707,-0.4789183437824249,0.6414848566055298
1657787295070798300,2.09179833984375,0.13156510889530182,-0.5094616413116455,0.6494261026382446
1657787295072798500,2.093798583984375,0.13584116101264954,-0.5717698931694031,0.6677520871162415
1657787295074798300,2.09579833984375,0.14133894443511963,-0.6389650702476501,0.6769150495529175
1657787295076798200,2.097798095703125,0.14439326524734497,-0.6731734871864319,0.6836345791816711
1657787295078798300,2.09979833984375,0.14866933226585388,-0.7446447610855103,0.6921866536140442
1657787295080798200,2.101798095703125,0.15111279487609863,-0.8191702961921692,0.700127899646759
1657787295082798300,2.10379833984375,0.15172365307807922,-0.8588765263557434,0.7019605040550232
1657787295084797700,2.105797607421875,0.15722143650054932,-0.9370672702789307,0.7074583172798157
1657787295086797800,2.1077978515625,0.1584431678056717,-1.0183123350143433,0.709901750087738
1657787295088797700,2.109797607421875,0.15722143650054932,-1.056796908378601,0.7123452425003052
1657787295090797800,2.1117978515625,0.1584431678056717,-1.13926362991333,0.7153995633125305
1657787295092797700,2.113797607421875,0.1578323096036911,-1.2180652618408203,0.7160104513168335
1657787295094797600,2.115797607421875,0.1578323096036911,-1.2583824396133423,0.7172321677207947
1657787295096797700,2.117797607421875,0.15477798879146576,-1.3371840715408325,0.72028648853302
1657787295098797600,2.119797607421875,0.15050192177295685,-1.4147639274597168,0.7245625257492065
1657787295100796700,2.121796630859375,0.13156510889530182,-1.5693128108978271,0.7288386225700378
1657787295102795800,2.123795654296875,0.13156510889530182,-1.5693128108978271,0.7288386225700378
1657787295104796000,2.1257958984375,0.12484558671712875,-1.6071864366531372,0.730060338973999
1657787295106795800,2.127795654296875,0.11507174372673035,-1.644449234008789,0.7318929433822632
1657787295108796000,2.1297958984375,0.10102184116840363,-1.7220290899276733,0.7380015850067139
1657787295110795800,2.131795654296875,0.08025242388248444,-1.797776460647583,0.7416667938232422
1657787295112796000,2.1337958984375,0.06925684958696365,-1.8350391387939453,0.7434993386268616
1657787295114795800,2.135795654296875,0.045433104038238525,-1.910786509513855,0.748997151851654
1657787295116796000,2.1377958984375,0.022831087931990623,-1.984701156616211,0.7538840770721436
1657787295118795800,2.139795654296875,0.011835514567792416,-2.020742177963257,0.7544949650764465
1657787295120797200,2.141797119140625,-0.008933904580771923,-2.0928242206573486,0.7624362111091614
1657787295122797000,2.143797119140625,-0.03214678168296814,-2.1655173301696777,0.7667122483253479
1657787295124797000,2.145796875,-0.041920628398656845,-2.1978931427001953,0.7673230767250061
1657787295126796800,2.147796875,-0.06207918003201485,-2.2656991481781006,0.7740426063537598
1657787295128797000,2.149796875,-0.08651378750801086,-2.324953079223633,0.7777078151702881
1657787295130796500,2.151796630859375,-0.09750936180353165,-2.3524420261383057,0.7795404195785522
1657787295132796400,2.15379638671875,-0.12194397300481796,-2.406198263168335,0.7868707776069641
1657787295134796500,2.155796630859375,-0.14698944985866547,-2.4581217765808105,0.7972555160522461
1657787295136796700,2.157796630859375,-0.16165021061897278,-2.4801127910614014,0.8027532696723938
1657787295138796500,2.159796630859375,-0.18913915753364563,-2.525927782058716,0.8161923289299011
1657787295140795600,2.161795654296875,-0.29359710216522217,-2.660928964614868,0.8760571479797363
1657787295142794800,2.163794677734375,-0.29359710216522217,-2.660928964614868,0.8760571479797363
1657787295144794000,2.165794189453125,-0.29359710216522217,-2.660928964614868,0.8760571479797363
1657787295146793200,2.167793212890625,-0.3070361316204071,-2.677422285079956,0.8858309388160706
1657787295148793300,2.16979345703125,-0.3070361316204071,-2.677422285079956,0.8858309388160706
1657787295150793000,2.17179296875,-0.33391422033309937,-2.7146852016448975,0.9066003561019897
1657787295152792800,2.173792724609375,-0.36018142104148865,-2.7482826709747314,0.9285915493965149
1657787295154793000,2.17579296875,-0.3736204504966736,-2.7647759914398193,0.9408088326454163
1657787295156792800,2.177792724609375,-0.3980550765991211,-2.8008172512054443,0.9634108543395996
1657787295158793000,2.17979296875,-0.4218788146972656,-2.838690757751465,0.9908998012542725
1657787295160793600,2.181793701171875,-0.43165266513824463,-2.855794906616211,1.006171464920044
1657787295162794500,2.18379443359375,-0.45547640323638916,-2.8955013751983643,1.0348820686340332
1657787295164794400,2.18579443359375,-0.4799109995365143,-2.9413161277770996,1.070923089981079
1657787295166794500,2.18779443359375,-0.49212831258773804,-2.9626965522766113,1.0929142236709595
1657787295168794600,2.189794677734375,-0.5147303342819214,-3.014620065689087,1.1368966102600098
1657787295170794000,2.1917939453125,-0.5409975051879883,-3.0720412731170654,1.1875983476638794
1657787295172794000,2.193794189453125,-0.5544365644454956,-3.104417085647583,1.214476466178894
1657787295174794000,2.1957939453125,-0.5831472277641296,-3.173444986343384,1.2743412256240845
1657787295176794000,2.197794189453125,-0.6100252866744995,-3.2504138946533203,1.3397037982940674
1657787295178794000,2.1997939453125,-0.6289620995521545,-3.2931745052337646,1.3702471256256104
1657787295180792800,2.201792724609375,-0.7816784381866455,-3.615100622177124,1.623145341873169
1657787295182792000,2.2037919921875,-0.8097782135009766,-3.665191411972046,1.6573537588119507
1657787295184791300,2.205791259765625,-0.8097782135009766,-3.665191411972046,1.6573537588119507
1657787295186790400,2.207790283203125,-0.8097782135009766,-3.665191411972046,1.6573537588119507
1657787295188790300,2.209790283203125,-0.8397106528282166,-3.7146716117858887,1.6927839517593384
1657787295190790400,2.211790283203125,-0.8702539205551147,-3.763540744781494,1.7288249731063843
1657787295192790500,2.21379052734375,-0.9362273216247559,-3.868609666824341,1.796631097793579
1657787295194790400,2.215790283203125,-1.0083094835281372,-3.971845865249634,1.85955011844635
1657787295196791000,2.217791015625,-1.045572280883789,-4.021936893463135,1.890093445777893
1657787295198791000,2.219791015625,-1.1255955696105957,-4.1190643310546875,1.9475147724151611
1657787295200791800,2.221791748046875,-1.2068406343460083,-4.212526798248291,1.9994382858276367
1657787295202792700,2.223792724609375,-1.2502120733261108,-4.25406551361084,2.020207643508911
1657787295204793600,2.225793701171875,-1.3339005708694458,-4.332256317138672,2.061135768890381
1657787295206794500,2.22779443359375,-1.4249194860458374,-4.406170845031738,2.0935115814208984
1657787295208794600,2.229794677734375,-1.4707344770431519,-4.4397687911987305,2.106950521469116
1657787295210795300,2.231795166015625,-1.5629750490188599,-4.49413537979126,2.1246657371520996
1657787295212795100,2.233795166015625,-1.6576591730117798,-4.541783332824707,2.1356613636016846
1657787295214795300,2.235795166015625,-1.7034740447998047,-4.55705451965332,2.1362721920013428
1657787295216795100,2.237795166015625,-1.7926604747772217,-4.584543704986572,2.1326069831848145
1657787295218795300,2.239795166015625,-1.8830684423446655,-4.593095779418945,2.1167244911193848
1657787295220794600,2.241794677734375,-2.2025508880615234,-4.5240678787231445,1.973781943321228
1657787295222793700,2.243793701171875,-2.2361485958099365,-4.504520416259766,1.9481256008148193
1657787295224792800,2.245792724609375,-2.273411273956299,-4.48436164855957,1.9255236387252808
1657787295226792000,2.2477919921875,-2.273411273956299,-4.48436164855957,1.9255236387252808
1657787295228791600,2.24979150390625,-2.273411273956299,-4.48436164855957,1.9255236387252808
1657787295230791000,2.251791015625,-2.273411273956299,-4.48436164855957,1.9255236387252808
1657787295232791000,2.253791015625,-2.303954601287842,-4.458705425262451,1.8962020874023438
1657787295234790700,2.255790771484375,-2.3674845695495605,-4.401895046234131,1.8467220067977905
1657787295236790500,2.25779052734375,-2.42429518699646,-4.335921287536621,1.794798493385315
1657787295238790100,2.2597900390625,-2.4511730670928955,-4.301102161407471,1.7697529792785645
1657787295240802300,2.26180224609375,-2.5018749237060547,-4.225965976715088,1.7214946746826172
1657787295242802200,2.26380224609375,-2.550133228302002,-4.145942211151123,1.677512288093567
1657787295244802300,2.26580224609375,-2.575178861618042,-4.104403495788574,1.6542994976043701
1657787295246802200,2.26780224609375,-2.6216044425964355,-4.021936893463135,1.6097062826156616
1657787295248802300,2.26980224609375,-2.6655869483947754,-3.9406917095184326,1.5651130676269531
1657787295250802200,2.27180224609375,-2.686967134475708,-3.9009854793548584,1.5455654859542847
1657787295252801800,2.2738017578125,-2.7333929538726807,-3.8172969818115234,1.5064700841903687
1657787295254801400,2.275801513671875,-2.7749316692352295,-3.7372734546661377,1.469818115234375
1657787295256801300,2.27780126953125,-2.7999773025512695,-3.6969563961029053,1.453324794769287
1657787295258801200,2.27980126953125,-2.846402883529663,-3.6163222789764404,1.4246140718460083
1657787295260798500,2.281798583984375,-2.8928287029266357,-3.5308010578155518,1.3983469009399414
1657787295262798300,2.28379833984375,-2.9166524410247803,-3.4849863052368164,1.3885730504989624
1657787295264801000,2.285801025390625,-2.966132640838623,-3.3957998752593994,1.3696362972259521
1657787295266801000,2.28780078125,-3.0150017738342285,-3.304780960083008,1.3592514991760254
1657787295268800800,2.28980078125,-3.0400471687316895,-3.258355140686035,1.3531428575515747
1657787295270800600,2.291800537109375,-3.091970682144165,-3.1667253971099854,1.3464233875274658
1657787295272800800,2.29380078125,-3.141450881958008,-3.0720412731170654,1.3415364027023315
1657787295274800600,2.295800537109375,-3.1664962768554688,-3.0274481773376465,1.337260365486145
1657787295276800500,2.297800537109375,-3.2208633422851562,-2.933985710144043,1.3354277610778809
1657787295278800400,2.29980029296875,-3.278895616531372,-2.8405234813690186,1.3256539106369019
1657787295280800500,2.301800537109375,-3.303330183029175,-2.794097661972046,1.3219887018203735
1657787295282800400,2.30380029296875,-3.3631949424743652,-2.7061331272125244,1.3152692317962646
1657787295284800000,2.305800048828125,-3.4230597019195557,-2.6224443912506104,1.3042736053466797
1657787295286800100,2.307800048828125,-3.454824686050415,-2.5815165042877197,1.2999975681304932
1657787295288800000,2.309800048828125,-3.515911340713501,-2.4972171783447266,1.2902237176895142
1657787295290799900,2.3117998046875,-3.5788304805755615,-2.415361166000366,1.278617262840271
1657787295292800000,2.313800048828125,-3.607541084289551,-2.37626576423645,1.271897792816162
1657787295294800000,2.3157998046875,-3.6655733585357666,-2.2956316471099854,1.2578479051589966
1657787295296800000,2.317800048828125,-3.725438117980957,-2.2204952239990234,1.2395219802856445
1657787295298799900,2.3197998046875,-3.755981206893921,-2.180788993835449,1.2297481298446655
1657787295300799000,2.321799072265625,-3.865326166152954,-2.026850938796997,1.1839332580566406
1657787295302798000,2.323798095703125,-3.865326166152954,-2.026850938796997,1.1839332580566406
1657787295304798000,2.3257978515625,-3.8915934562683105,-1.9889771938323975,1.1735484600067139
1657787295306798000,2.327798095703125,-3.940462589263916,-1.9083430767059326,1.148503065109253
1657787295308798000,2.3297978515625,-3.9868884086608887,-1.8283196687698364,1.1228467226028442
1657787295310798600,2.331798583984375,-4.0082688331604,-1.7886134386062622,1.1087968349456787
1657787295312798700,2.333798828125,-4.051640033721924,-1.7061465978622437,1.081918716430664
1657787295314798800,2.335798828125,-4.09073543548584,-1.626123309135437,1.0574841499328613
1657787295316798700,2.337798828125,-4.11272668838501,-1.587027907371521,1.0477102994918823
1657787295318798600,2.339798583984375,-4.151211261749268,-1.510058879852295,1.0257190465927124
1657787295320799500,2.341799560546875,-4.186641216278076,-1.4428637027740479,1.0141127109527588
1657787295322800400,2.34380029296875,-4.204967498779297,-1.4098769426345825,1.0098365545272827
1657787295324799500,2.345799560546875,-4.242840766906738,-1.3439035415649414,1.0012844800949097
1657787295326799600,2.347799560546875,-4.275827407836914,-1.2834278345108032,1.0000628232955933
1657787295328799500,2.349799560546875,-4.292932033538818,-1.253495454788208,1.0018953084945679
1657787295330799600,2.351799560546875,-4.324697017669678,-1.1997393369674683,1.0086148977279663
1657787295332799500,2.353799560546875,-4.357072830200195,-1.1484266519546509,1.02327561378479
1657787295334799600,2.355799560546875,-4.372955322265625,-1.1215485334396362,1.0312168598175049
1657787295336799500,2.357799560546875,-4.404109477996826,-1.076344609260559,1.0470993518829346
1657787295338799600,2.359799560546875,-4.432819843292236,-1.027475357055664,1.070923089981079
1657787295340798700,2.361798828125,-4.528725624084473,-0.8796459436416626,1.1491138935089111
1657787295342797800,2.3637978515625,-4.545219421386719,-0.8570439219474792,1.1631637811660767
1657787295344797200,2.365797119140625,-4.545219421386719,-0.8570439219474792,1.1631637811660767
1657787295346796300,2.36779638671875,-4.545219421386719,-0.8570439219474792,1.1631637811660767
1657787295348796200,2.369796142578125,-4.560490608215332,-0.8313875794410706,1.1784354448318481
1657787295350795800,2.371795654296875,-4.587368965148926,-0.7843509912490845,1.2095896005630493
1657787295352796000,2.3737958984375,-4.6001973152160645,-0.7617489695549011,1.2273045778274536
1657787295354796800,2.375796875,-4.6270751953125,-0.7159340381622314,1.2560153007507324
1657787295356797000,2.377796875,-4.651509761810303,-0.6725626587867737,1.2890020608901978
1657787295358796800,2.379796875,-4.663727283477783,-0.6511823534965515,1.3061062097549438
1657787295360797700,2.381797607421875,-4.686328887939453,-0.6126978397369385,1.3342061042785645
1657787295362798600,2.383798583984375,-4.7095417976379395,-0.5797111392021179,1.3616949319839478
1657787295364798700,2.385798828125,-4.719316005706787,-0.5619960427284241,1.3757449388504028
1657787295366798300,2.38779833984375,-4.740085124969482,-0.5302310585975647,1.3971251249313354
1657787295368798500,2.389798583984375,-4.748026371002197,-0.5021312236785889,1.405677318572998
1657787295370797800,2.3917978515625,-4.768185138702393,-0.48808133602142334,1.4246140718460083
1657787295372798200,2.393798095703125,-4.787121772766113,-0.45814892649650574,1.4356096982955933
1657787295374798300,2.39579833984375,-4.795673847198486,-0.4447098970413208,1.4411075115203857
1657787295376798500,2.397798583984375,-4.8103346824646,-0.41722095012664795,1.4478269815444946
1657787295378798300,2.39979833984375,-4.824995517730713,-0.3878994286060333,1.453324794769287
1657787295380797400,2.40179736328125,-4.879973411560059,-0.28649580478668213,1.433166265487671
1657787295382795800,2.403795654296875,-4.886693000793457,-0.2718350291252136,1.4295010566711426
1657787295384795000,2.405794921875,-4.894634246826172,-0.2590068578720093,1.4227814674377441
1657787295386794000,2.4077939453125,-4.894634246826172,-0.2590068578720093,1.4227814674377441
1657787295388793000,2.40979296875,-4.897688388824463,-0.24617868661880493,1.4130076169967651
1657787295390792200,2.411792236328125,-4.897688388824463,-0.24617868661880493,1.4130076169967651
1657787295392791300,2.413791259765625,-4.897688388824463,-0.24617868661880493,1.4130076169967651
1657787295394791400,2.41579150390625,-4.911738395690918,-0.21807889640331268,1.3965142965316772
1657787295396791300,2.417791259765625,-4.926399230957031,-0.19058994948863983,1.3781883716583252
1657787295398791400,2.41979150390625,-4.940449237823486,-0.16554448008537292,1.3623058795928955
1657787295400791300,2.421791259765625,-4.946557521820068,-0.15027284622192383,1.3513102531433105
1657787295402791400,2.42379150390625,-4.959385871887207,-0.1270599663257599,1.3293191194534302
1657787295404791300,2.425791259765625,-4.966716289520264,-0.11056660860776901,1.3225996494293213
1657787295406791200,2.427791259765625,-4.980766296386719,-0.08918632566928864,1.307938814163208
1657787295408790800,2.429790771484375,-4.992372512817383,-0.06230825558304787,1.2914454936981201
1657787295410790700,2.431790771484375,-4.996648788452148,-0.0507018156349659,1.2841150760650635
1657787295412790500,2.43379052734375,-5.0052008628845215,-0.02321287989616394,1.270065188407898
1657787295414788600,2.43578857421875,-5.014363765716553,0.0024434609804302454,1.2609021663665771
1657787295416788500,2.43778857421875,-5.014974594116211,0.015882495790719986,1.2547935247421265
1657787295418788400,2.439788330078125,-5.0168070793151855,0.04092797264456749,1.2499066591262817
1657787295420785700,2.44178564453125,-4.995427131652832,0.14477506279945374,1.2456306219100952
1657787295422783200,2.443783203125,-4.991150856018066,0.15271630883216858,1.2474632263183594
1657787295424781000,2.445781005859375,-4.984431266784668,0.16432274878025055,1.2486848831176758
1657787295426779000,2.44777880859375,-4.984431266784668,0.16432274878025055,1.2486848831176758
1657787295428778800,2.44977880859375,-4.984431266784668,0.16432274878025055,1.2486848831176758
1657787295430776800,2.45177685546875,-4.976490020751953,0.1722639948129654,1.2541826963424683
1657787295432777000,2.45377685546875,-4.96793794631958,0.18081611394882202,1.2560153007507324
1657787295434776800,2.45577685546875,-4.960607528686523,0.1820378452539444,1.260291337966919
1657787295436776400,2.4577763671875,-4.943503379821777,0.18936823308467865,1.2725086212158203
1657787295438776600,2.459776611328125,-4.92395544052124,0.19364428520202637,1.2853368520736694
1657787295440776400,2.4617763671875,-4.909295082092285,0.19364428520202637,1.292667269706726
1657787295442776600,2.463776611328125,-4.885471343994141,0.1966986060142517,1.3097714185714722
1657787295444776400,2.4657763671875,-4.856149673461914,0.2021963894367218,1.3293191194534302
1657787295446776600,2.467776611328125,-4.840267181396484,0.2064724564552307,1.3390929698944092
1657787295448776400,2.4697763671875,-4.804836750030518,0.21380282938480377,1.3623058795928955
1657787295450774300,2.471774169921875,-4.765741348266602,0.21930062770843506,1.38612961769104
1657787295452774000,2.47377392578125,-4.7455830574035645,0.22296582162380219,1.3940708637237549
1657787295454773800,2.475773681640625,-4.700989723205566,0.23151792585849762,1.4197272062301636
1657787295456773600,2.477773681640625,-4.655174732208252,0.24129177629947662,1.44294011592865
1657787295458773500,2.4797734375,-4.63318395614624,0.24862214922904968,1.4539356231689453
1657787295460770800,2.481770751953125,-4.5641560554504395,0.2669481039047241,1.488144040107727
1657787295462771000,2.48377099609375,-4.542775630950928,0.2767219543457031,1.500361442565918
1657787295464772900,2.48577294921875,-4.518951892852783,0.2834414839744568,1.510135293006897
1657787295466772700,2.487772705078125,-4.474359035491943,0.29993483424186707,1.5302938222885132
1657787295468772900,2.48977294921875,-4.432209014892578,0.313373863697052,1.5504523515701294
1657787295470772000,2.49177197265625,-4.408385276794434,0.3194825351238251,1.5590044260025024
1657787295472772000,2.493772216796875,-4.366846561431885,0.32559117674827576,1.5754978656768799
1657787295474772000,2.49577197265625,-4.325918674468994,0.3323107063770294,1.5883259773254395
1657787295476772000,2.497772216796875,-4.304538249969482,0.3323107063770294,1.595045566558838
1657787295478772000,2.49977197265625,-4.262999534606934,0.33536502718925476,1.6042084693908691
1657787295480772000,2.501772216796875,-4.219017028808594,0.33536502718925476,1.6084845066070557
1657787295482772000,2.50377197265625,-4.195804119110107,0.3323107063770294,1.6103171110153198
1657787295484772000,2.505772216796875,-4.14754581451416,0.3286454975605011,1.6090954542160034
1657787295486772000,2.50777197265625,-4.099287509918213,0.3182607889175415,1.6078736782073975
1657787295488771800,2.509771728515625,-4.07485294342041,0.31459560990333557,1.605430245399475
1657787295490772000,2.51177197265625,-4.024762153625488,0.304210901260376,1.5968780517578125
1657787295492771800,2.513771728515625,-3.9746711254119873,0.2987131178379059,1.5895477533340454
1657787295494771700,2.515771728515625,-3.9477930068969727,0.29626965522766113,1.5852717161178589
1657787295496771800,2.517771728515625,-3.8964803218841553,0.29077184200286865,1.5700000524520874
1657787295498771700,2.519771728515625,-3.84761118888855,0.2889392673969269,1.5559501647949219
1657787295500770800,2.521770751953125,-3.748039960861206,0.28588494658470154,1.519909143447876
1657787295502770000,2.52377001953125,-3.748039960861206,0.28588494658470154,1.519909143447876
1657787295504770000,2.52577001953125,-3.725438117980957,0.28099802136421204,1.508913516998291
1657787295506770000,2.52777001953125,-3.700392484664917,0.2779437005519867,1.499139666557312
1657787295508769800,2.529769775390625,-3.650301694869995,0.2718350291252136,1.4747051000595093
1657787295510770200,2.531770263671875,-3.602043390274048,0.26450464129447937,1.4466052055358887
1657787295512770300,2.533770263671875,-3.577608585357666,0.25961771607398987,1.431944489479065
1657787295514770200,2.535770263671875,-3.5281286239624023,0.252287358045578,1.4038447141647339
1657787295516770300,2.537770263671875,-3.4792592525482178,0.2474004179239273,1.375133991241455
1657787295518770400,2.5397705078125,-3.4523813724517822,0.24495697021484375,1.3604732751846313
1657787295520771300,2.541771240234375,-3.401068687438965,0.24007004499435425,1.3299299478530884
1657787295522771000,2.54377099609375,-3.3479232788085938,0.23945917189121246,1.302441120147705
1657787295524770300,2.545770263671875,-3.3222670555114746,0.24007004499435425,1.2859476804733276
1657787295526770200,2.547770263671875,-3.2709543704986572,0.24373523890972137,1.2609021663665771
1657787295528769300,2.549769287109375,-3.220252513885498,0.2480112910270691,1.2364675998687744
1657787295530769700,2.551769775390625,-3.192763566970825,0.252287358045578,1.2224177122116089
1657787295532769800,2.553769775390625,-3.142672538757324,0.2638937830924988,1.1998157501220703
1657787295534769700,2.555769775390625,-3.0956358909606934,0.2742784917354584,1.1772136688232422
1657787295536769500,2.55776953125,-3.069368839263916,0.2840523421764374,1.1692724227905273
1657787295538769700,2.559769775390625,-3.0198886394500732,0.2968805134296417,1.1454486846923828
1657787295540768800,2.561768798828125,-2.846402883529663,0.32559117674827576,1.1008555889129639
1657787295542767900,2.563767822265625,-2.846402883529663,0.32559117674827576,1.1008555889129639
1657787295544767000,2.56576708984375,-2.846402883529663,0.32559117674827576,1.1008555889129639
